"success","timeout","failed_images","failed_audio","failed_video","trial_type","trial_index","time_elapsed","internal_node_id","rt","stimulus","response","value","item_width_mm","item_height_mm","item_width_px","px2mm","view_dist_mm","item_width_deg","px2deg","scale_factor","win_width_deg","win_height_deg","view_history","response_type","key_press","avg_frame_time","center_x","center_y","correct_response","correct","Image","word","condition","screen_id"
"true","false","[]","[]","[]","preload","0","5","0.0-0.0","","","","","","","","","","","","","","","","","","","","","","","","","",""
"","","","","","html-keyboard-response","1","18060","0.0-1.0","18054","
   <p>您好，欢迎参加本次实验。</p>
   <p>为充分保障您的权利，请确保您已经知晓并同意《参与实验同意书》以及《数据公开知情同意书》。</p>
   <p>如果您未见过上述内容，请咨询实验员。</p>
   <p>如果您选择继续实验，则表示您已经清楚两份知情同意书的内容并同意。</p>
   <p> <div style = ""color: green""><按任意键至下页></div> </p>
   ","j","","","","","","","","","","","","","","","","","","","","","","",""
"","","","","","html-keyboard-response","2","19564","0.0-2.0","1504","
   <p>本实验首先需要您填写一些基本个人信息。</p>
   <p> <div style = ""color: green""><按任意键至下页></div></p>
   ","j","","","","","","","","","","","","","","","","","","","","","","",""
"","","","","","call-function","3","19565","0.0-3.0-0.0","","","","","","","","","","","","","","","","","","","","","","","","","",""
"","","","","","survey-html-form","4","22685","0.0-3.0-1.0","3118","","{""Q0"":""001""}","","","","","","","","","","","","","","","","","","","","","","",""
"","","","","","html-button-response","5","24725","0.0-3.0-2.0","2038","<p style = 'color : white'>您的性别</p>","0","","","","","","","","","","","","","","","","","","","","","","",""
"","","","","","survey-html-form","6","26950","0.0-3.0-3.0","2224","","{""Q0"":""1900""}","","","","","","","","","","","","","","","","","","","","","","",""
"","","","","","survey-html-form","7","28077","0.0-3.0-4.0","1125","","{""Q0"":""7""}","","","","","","","","","","","","","","","","","","","","","","",""
"","","","","","virtual-chinrest","8","53227","0.0-4.0","25149","","","","85.6","53.98","421.5676482669657","4.919966109845972","580.65","8.431352965339315","50","0.9939092853127579","28.8","15.28","","","","","","","","","","","",""
"true","","","","","fullscreen","9","55130","0.0-5.0","","","","","","","","","","","","","","","","","","","","","","","","","",""
"","","","","","instructions","10","61645","0.0-6.0","6514","","","","","","","","","","","","","","[{""page_index"":0,""viewing_time"":1765},{""page_index"":1,""viewing_time"":2304},{""page_index"":2,""viewing_time"":1251},{""page_index"":3,""viewing_time"":1192}]","","","","","","","","","","",""
"","","","","","psychophysics","11","63300","0.0-7.0-0.0-0.0","503","","f","","","","","","","","","","","","","key","f","16.666000000000036","720","446","f","true","img/S_ambi40.png","三角","prac_image_first",""
"","","","","","html-keyboard-response","12","63607","0.0-7.0-0.0-1.0","null","<span style='color:GreenYellow; font-size: 70px;'>正确! </span>","null","","","","","","","","","","","","","","","","","","","","","","","feedback_test"
"","","","","","psychophysics","13","65208","0.0-7.0-0.0-0.1","448","","j","","","","","","","","","","","","","key","j","16.746978723404258","720","446","j","true","img/C_ambi40.png","圆形","prac_image_first",""
"","","","","","html-keyboard-response","14","65509","0.0-7.0-0.0-1.1","null","<span style='color:GreenYellow; font-size: 70px;'>正确! </span>","null","","","","","","","","","","","","","","","","","","","","","","","feedback_test"
"","","","","","psychophysics","15","67122","0.0-7.0-0.0-0.2","462","","f","","","","","","","","","","","","","key","f","16.666000000000015","720","446","f","true","img/C_ambi40.png","三角","prac_image_first",""
"","","","","","html-keyboard-response","16","67424","0.0-7.0-0.0-1.2","null","<span style='color:GreenYellow; font-size: 70px;'>正确! </span>","null","","","","","","","","","","","","","","","","","","","","","","","feedback_test"
"","","","","","psychophysics","17","69421","0.0-7.0-0.0-0.3","845","","j","","","","","","","","","","","","","key","j","16.666000000000007","720","446","j","true","img/T_ambi40.png","三角","prac_image_first",""
"","","","","","html-keyboard-response","18","69727","0.0-7.0-0.0-1.3","null","<span style='color:GreenYellow; font-size: 70px;'>正确! </span>","null","","","","","","","","","","","","","","","","","","","","","","","feedback_test"
"","","","","","psychophysics","19","71126","0.0-7.0-0.0-0.4","245","","f","","","","","","","","","","","","","key","f","16.666000000000068","720","446","j","false","img/S_ambi40.png","方形","prac_image_first",""
"","","","","","html-keyboard-response","20","71429","0.0-7.0-0.0-1.4","null","<span style='color:red; font-size: 70px;'>错误! </span>","null","","","","","","","","","","","","","","","","","","","","","","","feedback_test"
"","","","","","psychophysics","21","74086","0.0-7.0-0.0-0.5","null","","null","","","","","","","","","","","","","key","null","16.666","720","446","f","false","img/T_ambi40.png","方形","prac_image_first",""
"","","","","","html-keyboard-response","22","74388","0.0-7.0-0.0-1.5","null","<span class='add_' style='color:yellow; font-size: 70px;'> 太慢! </span>","null","","","","","","","","","","","","","","","","","","","","","","","feedback_test"
"","","","","","psychophysics","23","76167","0.0-7.0-0.0-0.6","626","","j","","","","","","","","","","","","","key","j","16.592424528301805","720","446","j","true","img/S_ambi40.png","方形","prac_image_first",""
"","","","","","html-keyboard-response","24","76469","0.0-7.0-0.0-1.6","null","<span style='color:GreenYellow; font-size: 70px;'>正确! </span>","null","","","","","","","","","","","","","","","","","","","","","","","feedback_test"
"","","","","","psychophysics","25","78171","0.0-7.0-0.0-0.7","550","","f","","","","","","","","","","","","","key","f","16.665999999999887","720","446","f","true","img/C_ambi40.png","方形","prac_image_first",""
"","","","","","html-keyboard-response","26","78476","0.0-7.0-0.0-1.7","null","<span style='color:GreenYellow; font-size: 70px;'>正确! </span>","null","","","","","","","","","","","","","","","","","","","","","","","feedback_test"
"","","","","","psychophysics","27","80149","0.0-7.0-0.0-0.8","521","","f","","","","","","","","","","","","","key","f","16.665999999999936","720","446","f","true","img/T_ambi40.png","圆形","prac_image_first",""
"","","","","","html-keyboard-response","28","80454","0.0-7.0-0.0-1.8","null","<span style='color:GreenYellow; font-size: 70px;'>正确! </span>","null","","","","","","","","","","","","","","","","","","","","","","","feedback_test"
"","","","","","psychophysics","29","82172","0.0-7.0-0.0-0.9","564","","f","","","","","","","","","","","","","key","f","16.666000000000007","720","446","f","true","img/S_ambi40.png","圆形","prac_image_first",""
"","","","","","html-keyboard-response","30","82478","0.0-7.0-0.0-1.9","null","<span style='color:GreenYellow; font-size: 70px;'>正确! </span>","null","","","","","","","","","","","","","","","","","","","","","","","feedback_test"
"","","","","","psychophysics","31","84040","0.0-7.0-0.0-0.10","412","","j","","","","","","","","","","","","","key","j","16.66599999999997","720","446","j","true","img/T_ambi40.png","三角","prac_image_first",""
"","","","","","html-keyboard-response","32","84345","0.0-7.0-0.0-1.10","null","<span style='color:GreenYellow; font-size: 70px;'>正确! </span>","null","","","","","","","","","","","","","","","","","","","","","","","feedback_test"
"","","","","","psychophysics","33","86065","0.0-7.0-0.0-0.11","568","","f","","","","","","","","","","","","","key","f","16.666000000000007","720","446","j","false","img/C_ambi40.png","圆形","prac_image_first",""
"","","","","","html-keyboard-response","34","86371","0.0-7.0-0.0-1.11","null","<span style='color:red; font-size: 70px;'>错误! </span>","null","","","","","","","","","","","","","","","","","","","","","","","feedback_test"
"","","","","","psychophysics","35","88023","0.0-7.0-0.0-0.12","499","","j","","","","","","","","","","","","","key","j","16.665999999999965","720","446","j","true","img/S_ambi40.png","方形","prac_image_first",""
"","","","","","html-keyboard-response","36","88325","0.0-7.0-0.0-1.12","null","<span style='color:GreenYellow; font-size: 70px;'>正确! </span>","null","","","","","","","","","","","","","","","","","","","","","","","feedback_test"
"","","","","","psychophysics","37","90978","0.0-7.0-0.0-0.13","null","","null","","","","","","","","","","","","","key","null","16.666000000000018","720","446","j","false","img/C_ambi40.png","圆形","prac_image_first",""
"","","","","","html-keyboard-response","38","91279","0.0-7.0-0.0-1.13","null","<span class='add_' style='color:yellow; font-size: 70px;'> 太慢! </span>","null","","","","","","","","","","","","","","","","","","","","","","","feedback_test"
"","","","","","psychophysics","39","92910","0.0-7.0-0.0-0.14","480","","f","","","","","","","","","","","","","key","f","16.66599999999999","720","446","f","true","img/C_ambi40.png","三角","prac_image_first",""
"","","","","","html-keyboard-response","40","93220","0.0-7.0-0.0-1.14","null","<span style='color:GreenYellow; font-size: 70px;'>正确! </span>","null","","","","","","","","","","","","","","","","","","","","","","","feedback_test"
"","","","","","psychophysics","41","94818","0.0-7.0-0.0-0.15","447","","j","","","","","","","","","","","","","key","j","16.690084210526365","720","446","j","true","img/T_ambi40.png","三角","prac_image_first",""
"","","","","","html-keyboard-response","42","95124","0.0-7.0-0.0-1.15","null","<span style='color:GreenYellow; font-size: 70px;'>正确! </span>","null","","","","","","","","","","","","","","","","","","","","","","","feedback_test"
"","","","","","psychophysics","43","96822","0.0-7.0-0.0-0.16","546","","j","","","","","","","","","","","","","key","j","16.666000000000032","720","446","j","true","img/S_ambi40.png","方形","prac_image_first",""
"","","","","","html-keyboard-response","44","97124","0.0-7.0-0.0-1.16","null","<span style='color:GreenYellow; font-size: 70px;'>正确! </span>","null","","","","","","","","","","","","","","","","","","","","","","","feedback_test"
"","","","","","psychophysics","45","98825","0.0-7.0-0.0-0.17","550","","f","","","","","","","","","","","","","key","f","16.665999999999887","720","446","f","true","img/S_ambi40.png","三角","prac_image_first",""
"","","","","","html-keyboard-response","46","99129","0.0-7.0-0.0-1.17","null","<span style='color:GreenYellow; font-size: 70px;'>正确! </span>","null","","","","","","","","","","","","","","","","","","","","","","","feedback_test"
"","","","","","psychophysics","47","100917","0.0-7.0-0.0-0.18","636","","f","","","","","","","","","","","","","key","f","16.666000000000047","720","446","f","true","img/S_ambi40.png","圆形","prac_image_first",""
"","","","","","html-keyboard-response","48","101219","0.0-7.0-0.0-1.18","null","<span style='color:GreenYellow; font-size: 70px;'>正确! </span>","null","","","","","","","","","","","","","","","","","","","","","","","feedback_test"
"","","","","","psychophysics","49","102849","0.0-7.0-0.0-0.19","478","","j","","","","","","","","","","","","","key","j","16.66599999999999","720","446","j","true","img/T_ambi40.png","三角","prac_image_first",""
"","","","","","html-keyboard-response","50","103155","0.0-7.0-0.0-1.19","null","<span style='color:GreenYellow; font-size: 70px;'>正确! </span>","null","","","","","","","","","","","","","","","","","","","","","","","feedback_test"
"","","","","","psychophysics","51","104785","0.0-7.0-0.0-0.20","475","","f","","","","","","","","","","","","","key","f","16.66599999999999","720","446","f","true","img/T_ambi40.png","方形","prac_image_first",""
"","","","","","html-keyboard-response","52","105086","0.0-7.0-0.0-1.20","null","<span style='color:GreenYellow; font-size: 70px;'>正确! </span>","null","","","","","","","","","","","","","","","","","","","","","","","feedback_test"
"","","","","","psychophysics","53","107035","0.0-7.0-0.0-0.21","797","","f","","","","","","","","","","","","","key","f","16.665999999999947","720","446","f","true","img/C_ambi40.png","方形","prac_image_first",""
"","","","","","html-keyboard-response","54","107341","0.0-7.0-0.0-1.21","null","<span style='color:GreenYellow; font-size: 70px;'>正确! </span>","null","","","","","","","","","","","","","","","","","","","","","","","feedback_test"
"","","","","","psychophysics","55","109064","0.0-7.0-0.0-0.22","572","","f","","","","","","","","","","","","","key","f","16.666000000000007","720","446","f","true","img/T_ambi40.png","圆形","prac_image_first",""
"","","","","","html-keyboard-response","56","109366","0.0-7.0-0.0-1.22","null","<span style='color:GreenYellow; font-size: 70px;'>正确! </span>","null","","","","","","","","","","","","","","","","","","","","","","","feedback_test"
"","","","","","psychophysics","57","111107","0.0-7.0-0.0-0.23","589","","j","","","","","","","","","","","","","key","j","16.665999999999983","720","446","j","true","img/C_ambi40.png","圆形","prac_image_first",""
"","","","","","html-keyboard-response","58","111411","0.0-7.0-0.0-1.23","null","<span style='color:GreenYellow; font-size: 70px;'>正确! </span>","null","","","","","","","","","","","","","","","","","","","","","","","feedback_test"
"","","","","","psychophysics","59","113159","0.0-7.0-0.0-0.24","593","","j","","","","","","","","","","","","","key","j","16.665999999999983","720","446","j","true","img/S_ambi40.png","方形","prac_image_first",""
"","","","","","html-keyboard-response","60","113463","0.0-7.0-0.0-1.24","null","<span style='color:GreenYellow; font-size: 70px;'>正确! </span>","null","","","","","","","","","","","","","","","","","","","","","","","feedback_test"
"","","","","","psychophysics","61","115135","0.0-7.0-0.0-0.25","519","","j","","","","","","","","","","","","","key","j","16.654030303030265","720","446","j","true","img/C_ambi40.png","圆形","prac_image_first",""
"","","","","","html-keyboard-response","62","115440","0.0-7.0-0.0-1.25","null","<span style='color:GreenYellow; font-size: 70px;'>正确! </span>","null","","","","","","","","","","","","","","","","","","","","","","","feedback_test"
"","","","","","psychophysics","63","117118","0.0-7.0-0.0-0.26","526","","f","","","","","","","","","","","","","key","f","16.665999999999936","720","446","f","true","img/C_ambi40.png","方形","prac_image_first",""
"","","","","","html-keyboard-response","64","117424","0.0-7.0-0.0-1.26","null","<span style='color:GreenYellow; font-size: 70px;'>正确! </span>","null","","","","","","","","","","","","","","","","","","","","","","","feedback_test"
"","","","","","psychophysics","65","119206","0.0-7.0-0.0-0.27","631","","f","","","","","","","","","","","","","key","f","16.666000000000047","720","446","f","true","img/S_ambi40.png","三角","prac_image_first",""
"","","","","","html-keyboard-response","66","119512","0.0-7.0-0.0-1.27","null","<span style='color:GreenYellow; font-size: 70px;'>正确! </span>","null","","","","","","","","","","","","","","","","","","","","","","","feedback_test"
"","","","","","psychophysics","67","121211","0.0-7.0-0.0-0.28","548","","j","","","","","","","","","","","","","key","j","16.666000000000032","720","446","j","true","img/T_ambi40.png","三角","prac_image_first",""
"","","","","","html-keyboard-response","68","121515","0.0-7.0-0.0-1.28","null","<span style='color:GreenYellow; font-size: 70px;'>正确! </span>","null","","","","","","","","","","","","","","","","","","","","","","","feedback_test"
"","","","","","psychophysics","69","123596","0.0-7.0-0.0-0.29","930","","f","","","","","","","","","","","","","key","f","16.66600000000002","720","446","j","false","img/C_ambi40.png","圆形","prac_image_first",""
"","","","","","html-keyboard-response","70","123902","0.0-7.0-0.0-1.29","null","<span style='color:red; font-size: 70px;'>错误! </span>","null","","","","","","","","","","","","","","","","","","","","","","","feedback_test"
"","","","","","psychophysics","71","125530","0.0-7.0-0.0-0.30","474","","j","","","","","","","","","","","","","key","j","16.66599999999999","720","446","f","false","img/T_ambi40.png","圆形","prac_image_first",""
"","","","","","html-keyboard-response","72","125833","0.0-7.0-0.0-1.30","null","<span style='color:red; font-size: 70px;'>错误! </span>","null","","","","","","","","","","","","","","","","","","","","","","","feedback_test"
"","","","","","psychophysics","73","127579","0.0-7.0-0.0-0.31","593","","f","","","","","","","","","","","","","key","f","16.665999999999958","720","446","f","true","img/T_ambi40.png","方形","prac_image_first",""
"","","","","","html-keyboard-response","74","127880","0.0-7.0-0.0-1.31","null","<span style='color:GreenYellow; font-size: 70px;'>正确! </span>","null","","","","","","","","","","","","","","","","","","","","","","","feedback_test"
"","","","","","psychophysics","75","129580","0.0-7.0-0.0-0.32","548","","j","","","","","","","","","","","","","key","j","16.666000000000032","720","446","j","true","img/S_ambi40.png","方形","prac_image_first",""
"","","","","","html-keyboard-response","76","129886","0.0-7.0-0.0-1.32","null","<span style='color:GreenYellow; font-size: 70px;'>正确! </span>","null","","","","","","","","","","","","","","","","","","","","","","","feedback_test"
"","","","","","psychophysics","77","131562","0.0-7.0-0.0-0.33","523","","f","","","","","","","","","","","","","key","f","16.666000000000203","720","446","f","true","img/S_ambi40.png","圆形","prac_image_first",""
"","","","","","html-keyboard-response","78","131866","0.0-7.0-0.0-1.33","null","<span style='color:GreenYellow; font-size: 70px;'>正确! </span>","null","","","","","","","","","","","","","","","","","","","","","","","feedback_test"
"","","","","","psychophysics","79","133546","0.0-7.0-0.0-0.34","527","","f","","","","","","","","","","","","","key","f","16.666000000000057","720","446","f","true","img/C_ambi40.png","三角","prac_image_first",""
"","","","","","html-keyboard-response","80","133847","0.0-7.0-0.0-1.34","null","<span style='color:GreenYellow; font-size: 70px;'>正确! </span>","null","","","","","","","","","","","","","","","","","","","","","","","feedback_test"
"","","","","","psychophysics","81","135590","0.0-7.0-0.0-0.35","592","","j","","","","","","","","","","","","","key","j","16.5954807692307","720","446","j","true","img/T_ambi40.png","三角","prac_image_first",""
"","","","","","html-keyboard-response","82","135892","0.0-7.0-0.0-1.35","null","<span style='color:GreenYellow; font-size: 70px;'>正确! </span>","null","","","","","","","","","","","","","","","","","","","","","","","feedback_test"
"","","","","","psychophysics","83","137727","0.0-7.0-0.0-0.36","680","","j","","","","","","","","","","","","","key","j","16.66599999999984","720","446","j","true","img/S_ambi40.png","方形","prac_image_first",""
"","","","","","html-keyboard-response","84","138029","0.0-7.0-0.0-1.36","null","<span style='color:GreenYellow; font-size: 70px;'>正确! </span>","null","","","","","","","","","","","","","","","","","","","","","","","feedback_test"
"","","","","","psychophysics","85","139821","0.0-7.0-0.0-0.37","640","","f","","","","","","","","","","","","","key","f","16.665999999999887","720","446","f","true","img/T_ambi40.png","方形","prac_image_first",""
"","","","","","html-keyboard-response","86","140127","0.0-7.0-0.0-1.37","null","<span style='color:GreenYellow; font-size: 70px;'>正确! </span>","null","","","","","","","","","","","","","","","","","","","","","","","feedback_test"
"","","","","","psychophysics","87","141775","0.0-7.0-0.0-0.38","494","","j","","","","","","","","","","","","","key","j","16.66600000000011","720","446","j","true","img/C_ambi40.png","圆形","prac_image_first",""
"","","","","","html-keyboard-response","88","142080","0.0-7.0-0.0-1.38","null","<span style='color:GreenYellow; font-size: 70px;'>正确! </span>","null","","","","","","","","","","","","","","","","","","","","","","","feedback_test"
"","","","","","psychophysics","89","143782","0.0-7.0-0.0-0.39","549","","j","","","","","","","","","","","","","key","j","16.666000000000032","720","446","j","true","img/T_ambi40.png","三角","prac_image_first",""
"","","","","","html-keyboard-response","90","144085","0.0-7.0-0.0-1.39","null","<span style='color:GreenYellow; font-size: 70px;'>正确! </span>","null","","","","","","","","","","","","","","","","","","","","","","","feedback_test"
"","","","","","psychophysics","91","145757","0.0-7.0-0.0-0.40","520","","f","","","","","","","","","","","","","key","f","16.666000000000086","720","446","f","true","img/T_ambi40.png","圆形","prac_image_first",""
"","","","","","html-keyboard-response","92","146060","0.0-7.0-0.0-1.40","null","<span style='color:GreenYellow; font-size: 70px;'>正确! </span>","null","","","","","","","","","","","","","","","","","","","","","","","feedback_test"
"","","","","","psychophysics","93","147848","0.0-7.0-0.0-0.41","636","","f","","","","","","","","","","","","","key","f","16.66600000000016","720","446","f","true","img/S_ambi40.png","圆形","prac_image_first",""
"","","","","","html-keyboard-response","94","148151","0.0-7.0-0.0-1.41","null","<span style='color:GreenYellow; font-size: 70px;'>正确! </span>","null","","","","","","","","","","","","","","","","","","","","","","","feedback_test"
"","","","","","psychophysics","95","149738","0.0-7.0-0.0-0.42","436","","f","","","","","","","","","","","","","key","f","16.666000000000224","720","446","f","true","img/S_ambi40.png","三角","prac_image_first",""
"","","","","","html-keyboard-response","96","150040","0.0-7.0-0.0-1.42","null","<span style='color:GreenYellow; font-size: 70px;'>正确! </span>","null","","","","","","","","","","","","","","","","","","","","","","","feedback_test"
"","","","","","psychophysics","97","151721","0.0-7.0-0.0-0.43","527","","f","","","","","","","","","","","","","key","f","16.666000000000057","720","446","f","true","img/C_ambi40.png","三角","prac_image_first",""
"","","","","","html-keyboard-response","98","152026","0.0-7.0-0.0-1.43","null","<span style='color:GreenYellow; font-size: 70px;'>正确! </span>","null","","","","","","","","","","","","","","","","","","","","","","","feedback_test"
"","","","","","psychophysics","99","153657","0.0-7.0-0.0-0.44","477","","j","","","","","","","","","","","","","key","j","16.66599999999984","720","446","j","true","img/T_ambi40.png","三角","prac_image_first",""
"","","","","","html-keyboard-response","100","153959","0.0-7.0-0.0-1.44","null","<span style='color:GreenYellow; font-size: 70px;'>正确! </span>","null","","","","","","","","","","","","","","","","","","","","","","","feedback_test"
"","","","","","psychophysics","101","155683","0.0-7.0-0.0-0.45","573","","f","","","","","","","","","","","","","key","f","16.62076699029139","720","446","f","true","img/C_ambi40.png","方形","prac_image_first",""
"","","","","","html-keyboard-response","102","155985","0.0-7.0-0.0-1.45","null","<span style='color:GreenYellow; font-size: 70px;'>正确! </span>","null","","","","","","","","","","","","","","","","","","","","","","","feedback_test"
"","","","","","psychophysics","103","157728","0.0-7.0-0.0-0.46","589","","j","","","","","","","","","","","","","key","j","16.665999999999958","720","446","j","true","img/C_ambi40.png","圆形","prac_image_first",""
"","","","","","html-keyboard-response","104","158034","0.0-7.0-0.0-1.46","null","<span style='color:GreenYellow; font-size: 70px;'>正确! </span>","null","","","","","","","","","","","","","","","","","","","","","","","feedback_test"
"","","","","","psychophysics","105","159799","0.0-7.0-0.0-0.47","612","","j","","","","","","","","","","","","","key","j","16.665999999999933","720","446","j","true","img/S_ambi40.png","方形","prac_image_first",""
"","","","","","html-keyboard-response","106","160105","0.0-7.0-0.0-1.47","null","<span style='color:GreenYellow; font-size: 70px;'>正确! </span>","null","","","","","","","","","","","","","","","","","","","","","","","feedback_test"
"","","","","","psychophysics","107","161733","0.0-7.0-0.0-0.48","472","","f","","","","","","","","","","","","","key","f","16.66599999999984","720","446","f","true","img/S_ambi40.png","圆形","prac_image_first",""
"","","","","","html-keyboard-response","108","162038","0.0-7.0-0.0-1.48","null","<span style='color:GreenYellow; font-size: 70px;'>正确! </span>","null","","","","","","","","","","","","","","","","","","","","","","","feedback_test"
"","","","","","psychophysics","109","163689","0.0-7.0-0.0-0.49","497","","f","","","","","","","","","","","","","key","f","16.66600000000011","720","446","f","true","img/C_ambi40.png","三角","prac_image_first",""
"","","","","","html-keyboard-response","110","163990","0.0-7.0-0.0-1.49","null","<span style='color:GreenYellow; font-size: 70px;'>正确! </span>","null","","","","","","","","","","","","","","","","","","","","","","","feedback_test"
"","","","","","psychophysics","111","165763","0.0-7.0-0.0-0.50","621","","f","","","","","","","","","","","","","key","f","16.665999999999933","720","446","f","true","img/C_ambi40.png","方形","prac_image_first",""
"","","","","","html-keyboard-response","112","166065","0.0-7.0-0.0-1.50","null","<span style='color:GreenYellow; font-size: 70px;'>正确! </span>","null","","","","","","","","","","","","","","","","","","","","","","","feedback_test"
"","","","","","psychophysics","113","167670","0.0-7.0-0.0-0.51","453","","f","","","","","","","","","","","","","key","f","16.666000000000196","720","446","f","true","img/T_ambi40.png","圆形","prac_image_first",""
"","","","","","html-keyboard-response","114","167973","0.0-7.0-0.0-1.51","null","<span style='color:GreenYellow; font-size: 70px;'>正确! </span>","null","","","","","","","","","","","","","","","","","","","","","","","feedback_test"
"","","","","","psychophysics","115","169674","0.0-7.0-0.0-0.52","549","","j","","","","","","","","","","","","","key","j","16.666000000000032","720","446","j","true","img/S_ambi40.png","方形","prac_image_first",""
"","","","","","html-keyboard-response","116","169975","0.0-7.0-0.0-1.52","null","<span style='color:GreenYellow; font-size: 70px;'>正确! </span>","null","","","","","","","","","","","","","","","","","","","","","","","feedback_test"
"","","","","","psychophysics","117","171679","0.0-7.0-0.0-0.53","552","","j","","","","","","","","","","","","","key","j","16.666000000000032","720","446","j","true","img/C_ambi40.png","圆形","prac_image_first",""
"","","","","","html-keyboard-response","118","171985","0.0-7.0-0.0-1.53","null","<span style='color:GreenYellow; font-size: 70px;'>正确! </span>","null","","","","","","","","","","","","","","","","","","","","","","","feedback_test"
"","","","","","psychophysics","119","173726","0.0-7.0-0.0-0.54","588","","j","","","","","","","","","","","","","key","j","16.665999999999958","720","446","j","true","img/S_ambi40.png","方形","prac_image_first",""
"","","","","","html-keyboard-response","120","174027","0.0-7.0-0.0-1.54","null","<span style='color:GreenYellow; font-size: 70px;'>正确! </span>","null","","","","","","","","","","","","","","","","","","","","","","","feedback_test"
"","","","","","psychophysics","121","175636","0.0-7.0-0.0-0.55","456","","f","","","","","","","","","","","","","key","f","16.732410526316073","720","446","f","true","img/T_ambi40.png","方形","prac_image_first",""
"","","","","","html-keyboard-response","122","175938","0.0-7.0-0.0-1.55","null","<span style='color:GreenYellow; font-size: 70px;'>正确! </span>","null","","","","","","","","","","","","","","","","","","","","","","","feedback_test"
"","","","","","psychophysics","123","177529","0.0-7.0-0.0-0.56","439","","f","","","","","","","","","","","","","key","f","16.666000000000224","720","446","f","true","img/S_ambi40.png","三角","prac_image_first",""
"","","","","","html-keyboard-response","124","177834","0.0-7.0-0.0-1.56","null","<span style='color:GreenYellow; font-size: 70px;'>正确! </span>","null","","","","","","","","","","","","","","","","","","","","","","","feedback_test"
"","","","","","psychophysics","125","179484","0.0-7.0-0.0-0.57","498","","f","","","","","","","","","","","","","key","f","16.66600000000011","720","446","j","false","img/T_ambi40.png","三角","prac_image_first",""
"","","","","","html-keyboard-response","126","179789","0.0-7.0-0.0-1.57","null","<span style='color:red; font-size: 70px;'>错误! </span>","null","","","","","","","","","","","","","","","","","","","","","","","feedback_test"
"","","","","","psychophysics","127","181422","0.0-7.0-0.0-0.58","480","","f","","","","","","","","","","","","","key","f","16.66599999999984","720","446","j","false","img/C_ambi40.png","圆形","prac_image_first",""
"","","","","","html-keyboard-response","128","181727","0.0-7.0-0.0-1.58","null","<span style='color:red; font-size: 70px;'>错误! </span>","null","","","","","","","","","","","","","","","","","","","","","","","feedback_test"
"","","","","","psychophysics","129","183377","0.0-7.0-0.0-0.59","497","","j","","","","","","","","","","","","","key","j","16.665999999999816","720","446","j","true","img/T_ambi40.png","三角","prac_image_first",""
"","","","","","html-keyboard-response","130","183680","0.0-7.0-0.0-1.59","null","<span style='color:GreenYellow; font-size: 70px;'>正确! </span>","null","","","","","","","","","","","","","","","","","","","","","","","feedback_test"
"","","","","","psychophysics","131","185288","0.0-7.0-0.0-0.60","455","","j","","","","","","","","","","","","","key","j","16.666000000000196","720","446","j","true","img/C_ambi40.png","圆形","prac_image_first",""
"","","","","","html-keyboard-response","132","185592","0.0-7.0-0.0-1.60","null","<span style='color:GreenYellow; font-size: 70px;'>正确! </span>","null","","","","","","","","","","","","","","","","","","","","","","","feedback_test"
"","","","","","psychophysics","133","187291","0.0-7.0-0.0-0.61","544","","f","","","","","","","","","","","","","key","f","16.666000000000032","720","446","f","true","img/C_ambi40.png","三角","prac_image_first",""
"","","","","","html-keyboard-response","134","187595","0.0-7.0-0.0-1.61","null","<span style='color:GreenYellow; font-size: 70px;'>正确! </span>","null","","","","","","","","","","","","","","","","","","","","","","","feedback_test"
"","","","","","psychophysics","135","189273","0.0-7.0-0.0-0.62","526","","f","","","","","","","","","","","","","key","f","16.666000000000057","720","446","f","true","img/T_ambi40.png","方形","prac_image_first",""
"","","","","","html-keyboard-response","136","189578","0.0-7.0-0.0-1.62","null","<span style='color:GreenYellow; font-size: 70px;'>正确! </span>","null","","","","","","","","","","","","","","","","","","","","","","","feedback_test"
"","","","","","psychophysics","137","191481","0.0-7.0-0.0-0.63","752","","j","","","","","","","","","","","","","key","j","16.666000000000015","720","446","j","true","img/T_ambi40.png","三角","prac_image_first",""
"","","","","","html-keyboard-response","138","191787","0.0-7.0-0.0-1.63","null","<span style='color:GreenYellow; font-size: 70px;'>正确! </span>","null","","","","","","","","","","","","","","","","","","","","","","","feedback_test"
"","","","","","psychophysics","139","193412","0.0-7.0-0.0-0.64","472","","f","","","","","","","","","","","","","key","f","16.665999999999865","720","446","f","true","img/S_ambi40.png","圆形","prac_image_first",""
"","","","","","html-keyboard-response","140","193717","0.0-7.0-0.0-1.64","null","<span style='color:GreenYellow; font-size: 70px;'>正确! </span>","null","","","","","","","","","","","","","","","","","","","","","","","feedback_test"
"","","","","","psychophysics","141","195435","0.0-7.0-0.0-0.65","566","","f","","","","","","","","","","","","","key","f","16.58940196078437","720","446","j","false","img/C_ambi40.png","圆形","prac_image_first",""
"","","","","","html-keyboard-response","142","195738","0.0-7.0-0.0-1.65","null","<span style='color:red; font-size: 70px;'>错误! </span>","null","","","","","","","","","","","","","","","","","","","","","","","feedback_test"
"","","","","","psychophysics","143","197463","0.0-7.0-0.0-0.66","573","","f","","","","","","","","","","","","","key","f","16.666000000000007","720","446","f","true","img/C_ambi40.png","方形","prac_image_first",""
"","","","","","html-keyboard-response","144","197764","0.0-7.0-0.0-1.66","null","<span style='color:GreenYellow; font-size: 70px;'>正确! </span>","null","","","","","","","","","","","","","","","","","","","","","","","feedback_test"
"","","","","","psychophysics","145","199524","0.0-7.0-0.0-0.67","544","","j","","","","","","","","","","","","","key","j","16.666000000000032","720","446","j","true","img/S_ambi40.png","方形","prac_image_first",""
"","","","","","html-keyboard-response","146","199826","0.0-7.0-0.0-1.67","null","<span style='color:GreenYellow; font-size: 70px;'>正确! </span>","null","","","","","","","","","","","","","","","","","","","","","","","feedback_test"
"","","","","","psychophysics","147","201458","0.0-7.0-0.0-0.68","480","","f","","","","","","","","","","","","","key","f","16.66599999999984","720","446","f","true","img/T_ambi40.png","圆形","prac_image_first",""
"","","","","","html-keyboard-response","148","201763","0.0-7.0-0.0-1.68","null","<span style='color:GreenYellow; font-size: 70px;'>正确! </span>","null","","","","","","","","","","","","","","","","","","","","","","","feedback_test"
"","","","","","psychophysics","149","203552","0.0-7.0-0.0-0.69","635","","j","","","","","","","","","","","","","key","j","16.66600000000016","720","446","j","true","img/T_ambi40.png","三角","prac_image_first",""
"","","","","","html-keyboard-response","150","203859","0.0-7.0-0.0-1.69","null","<span style='color:GreenYellow; font-size: 70px;'>正确! </span>","null","","","","","","","","","","","","","","","","","","","","","","","feedback_test"
"","","","","","psychophysics","151","205510","0.0-7.0-0.0-0.70","500","","f","","","","","","","","","","","","","key","f","16.66600000000011","720","446","f","true","img/S_ambi40.png","三角","prac_image_first",""
"","","","","","html-keyboard-response","152","205814","0.0-7.0-0.0-1.70","null","<span style='color:GreenYellow; font-size: 70px;'>正确! </span>","null","","","","","","","","","","","","","","","","","","","","","","","feedback_test"
"","","","","","psychophysics","153","207515","0.0-7.0-0.0-0.71","549","","j","","","","","","","","","","","","","key","j","16.666000000000032","720","446","j","true","img/S_ambi40.png","方形","prac_image_first",""
"","","","","","html-keyboard-response","154","207816","0.0-7.0-0.0-1.71","null","<span style='color:GreenYellow; font-size: 70px;'>正确! </span>","null","","","","","","","","","","","","","","","","","","","","","","","feedback_test"
"","","","","","html-keyboard-response","155","210419","0.0-8.0","2601","<style>.context{color:white; font-size: 35px; line-height:40px}</style>                            <div><p class='context'>您正确回答了88% 的试次。</p><p class='context'>您的平均反应时为547毫秒。</p><p class='context'>恭喜您完成这一阶段的练习。按任意键进入<span style='color: yellow;'>先文字后图形条件</span>的练习。</p></div>","j","","","","","","","","","","","","","","","","","","","","","","",""
"","","","","","psychophysics","156","212421","0.0-9.0-0.0-0.0","844","","j","","","","","","","","","","","","","key","j","16.665999999999883","720","446","j","true","img/T_ambi40.png","三角","prac_word_first",""
"","","","","","html-keyboard-response","157","212723","0.0-9.0-0.0-1.0","null","<span style='color:GreenYellow; font-size: 70px;'>正确! </span>","null","","","","","","","","","","","","","","","","","","","","","","","feedback_test"
"","","","","","psychophysics","158","214357","0.0-9.0-0.0-0.1","482","","j","","","","","","","","","","","","","key","j","16.66600000000014","720","446","j","true","img/S_ambi40.png","方形","prac_word_first",""
"","","","","","html-keyboard-response","159","214659","0.0-9.0-0.0-1.1","null","<span style='color:GreenYellow; font-size: 70px;'>正确! </span>","null","","","","","","","","","","","","","","","","","","","","","","","feedback_test"
"","","","","","psychophysics","160","216427","0.0-9.0-0.0-0.2","611","","j","","","","","","","","","","","","","key","j","16.684371428571396","720","446","j","true","img/C_ambi40.png","圆形","prac_word_first",""
"","","","","","html-keyboard-response","161","216732","0.0-9.0-0.0-1.2","null","<span style='color:GreenYellow; font-size: 70px;'>正确! </span>","null","","","","","","","","","","","","","","","","","","","","","","","feedback_test"
"","","","","","psychophysics","162","218403","0.0-9.0-0.0-0.3","518","","f","","","","","","","","","","","","","key","f","16.666000000000057","720","446","f","true","img/S_ambi40.png","三角","prac_word_first",""
"","","","","","html-keyboard-response","163","218705","0.0-9.0-0.0-1.3","null","<span style='color:GreenYellow; font-size: 70px;'>正确! </span>","null","","","","","","","","","","","","","","","","","","","","","","","feedback_test"
"","","","","","psychophysics","164","220474","0.0-9.0-0.0-0.4","618","","j","","","","","","","","","","","","","key","j","16.66600000000021","720","446","j","true","img/S_ambi40.png","方形","prac_word_first",""
"","","","","","html-keyboard-response","165","220780","0.0-9.0-0.0-1.4","null","<span style='color:GreenYellow; font-size: 70px;'>正确! </span>","null","","","","","","","","","","","","","","","","","","","","","","","feedback_test"
"","","","","","psychophysics","166","222477","0.0-9.0-0.0-0.5","546","","j","","","","","","","","","","","","","key","j","16.666000000000032","720","446","j","true","img/C_ambi40.png","圆形","prac_word_first",""
"","","","","","html-keyboard-response","167","222781","0.0-9.0-0.0-1.5","null","<span style='color:GreenYellow; font-size: 70px;'>正确! </span>","null","","","","","","","","","","","","","","","","","","","","","","","feedback_test"
"","","","","","psychophysics","168","224437","0.0-9.0-0.0-0.6","502","","f","","","","","","","","","","","","","key","f","16.666000000000086","720","446","f","true","img/S_ambi40.png","圆形","prac_word_first",""
"","","","","","html-keyboard-response","169","224741","0.0-9.0-0.0-1.6","null","<span style='color:GreenYellow; font-size: 70px;'>正确! </span>","null","","","","","","","","","","","","","","","","","","","","","","","feedback_test"
"","","","","","psychophysics","170","226345","0.0-9.0-0.0-0.7","451","","f","","","","","","","","","","","","","key","f","16.610757894736814","720","446","f","true","img/T_ambi40.png","方形","prac_word_first",""
"","","","","","html-keyboard-response","171","226650","0.0-9.0-0.0-1.7","null","<span style='color:GreenYellow; font-size: 70px;'>正确! </span>","null","","","","","","","","","","","","","","","","","","","","","","","feedback_test"
"","","","","","psychophysics","172","228301","0.0-9.0-0.0-0.8","500","","f","","","","","","","","","","","","","key","f","16.66600000000011","720","446","f","true","img/C_ambi40.png","方形","prac_word_first",""
"","","","","","html-keyboard-response","173","228607","0.0-9.0-0.0-1.8","null","<span style='color:GreenYellow; font-size: 70px;'>正确! </span>","null","","","","","","","","","","","","","","","","","","","","","","","feedback_test"
"","","","","","psychophysics","174","230303","0.0-9.0-0.0-0.9","542","","f","","","","","","","","","","","","","key","f","16.666000000000032","720","446","f","true","img/T_ambi40.png","圆形","prac_word_first",""
"","","","","","html-keyboard-response","175","230609","0.0-9.0-0.0-1.9","null","<span style='color:GreenYellow; font-size: 70px;'>正确! </span>","null","","","","","","","","","","","","","","","","","","","","","","","feedback_test"
"","","","","","psychophysics","176","232283","0.0-9.0-0.0-0.10","521","","j","","","","","","","","","","","","","key","j","16.666000000000057","720","446","j","true","img/T_ambi40.png","三角","prac_word_first",""
"","","","","","html-keyboard-response","177","232586","0.0-9.0-0.0-1.10","null","<span style='color:GreenYellow; font-size: 70px;'>正确! </span>","null","","","","","","","","","","","","","","","","","","","","","","","feedback_test"
"","","","","","psychophysics","178","234175","0.0-9.0-0.0-0.11","437","","f","","","","","","","","","","","","","key","f","16.665999999999915","720","446","f","true","img/C_ambi40.png","三角","prac_word_first",""
"","","","","","html-keyboard-response","179","234478","0.0-9.0-0.0-1.11","null","<span style='color:GreenYellow; font-size: 70px;'>正确! </span>","null","","","","","","","","","","","","","","","","","","","","","","","feedback_test"
"","","","","","psychophysics","180","236091","0.0-9.0-0.0-0.12","461","","f","","","","","","","","","","","","","key","f","16.66599999999989","720","446","f","true","img/S_ambi40.png","圆形","prac_word_first",""
"","","","","","html-keyboard-response","181","236397","0.0-9.0-0.0-1.12","null","<span style='color:GreenYellow; font-size: 70px;'>正确! </span>","null","","","","","","","","","","","","","","","","","","","","","","","feedback_test"
"","","","","","psychophysics","182","238268","0.0-9.0-0.0-0.13","720","","f","","","","","","","","","","","","","key","f","16.665999999999798","720","446","j","false","img/S_ambi40.png","方形","prac_word_first",""
"","","","","","html-keyboard-response","183","238573","0.0-9.0-0.0-1.13","null","<span style='color:red; font-size: 70px;'>错误! </span>","null","","","","","","","","","","","","","","","","","","","","","","","feedback_test"
"","","","","","psychophysics","184","240253","0.0-9.0-0.0-0.14","526","","j","","","","","","","","","","","","","key","j","16.666000000000057","720","446","j","true","img/C_ambi40.png","圆形","prac_word_first",""
"","","","","","html-keyboard-response","185","240559","0.0-9.0-0.0-1.14","null","<span style='color:GreenYellow; font-size: 70px;'>正确! </span>","null","","","","","","","","","","","","","","","","","","","","","","","feedback_test"
"","","","","","psychophysics","186","242211","0.0-9.0-0.0-0.15","498","","f","","","","","","","","","","","","","key","f","16.665999999999816","720","446","f","true","img/T_ambi40.png","圆形","prac_word_first",""
"","","","","","html-keyboard-response","187","242514","0.0-9.0-0.0-1.15","null","<span style='color:GreenYellow; font-size: 70px;'>正确! </span>","null","","","","","","","","","","","","","","","","","","","","","","","feedback_test"
"","","","","","psychophysics","188","244235","0.0-9.0-0.0-0.16","570","","j","","","","","","","","","","","","","key","j","16.666000000000007","720","446","j","true","img/T_ambi40.png","三角","prac_word_first",""
"","","","","","html-keyboard-response","189","244538","0.0-9.0-0.0-1.16","null","<span style='color:GreenYellow; font-size: 70px;'>正确! </span>","null","","","","","","","","","","","","","","","","","","","","","","","feedback_test"
"","","","","","psychophysics","190","246219","0.0-9.0-0.0-0.17","531","","f","","","","","","","","","","","","","key","f","16.692619999999877","720","446","f","true","img/T_ambi40.png","方形","prac_word_first",""
"","","","","","html-keyboard-response","191","246525","0.0-9.0-0.0-1.17","null","<span style='color:GreenYellow; font-size: 70px;'>正确! </span>","null","","","","","","","","","","","","","","","","","","","","","","","feedback_test"
"","","","","","psychophysics","192","248241","0.0-9.0-0.0-0.18","564","","f","","","","","","","","","","","","","key","f","16.666000000000007","720","446","f","true","img/C_ambi40.png","方形","prac_word_first",""
"","","","","","html-keyboard-response","193","248543","0.0-9.0-0.0-1.18","null","<span style='color:GreenYellow; font-size: 70px;'>正确! </span>","null","","","","","","","","","","","","","","","","","","","","","","","feedback_test"
"","","","","","psychophysics","194","250329","0.0-9.0-0.0-0.19","635","","f","","","","","","","","","","","","","key","f","16.666000000000185","720","446","f","true","img/C_ambi40.png","三角","prac_word_first",""
"","","","","","html-keyboard-response","195","250633","0.0-9.0-0.0-1.19","null","<span style='color:GreenYellow; font-size: 70px;'>正确! </span>","null","","","","","","","","","","","","","","","","","","","","","","","feedback_test"
"","","","","","psychophysics","196","252263","0.0-9.0-0.0-0.20","479","","j","","","","","","","","","","","","","key","j","16.666000000000167","720","446","j","true","img/C_ambi40.png","圆形","prac_word_first",""
"","","","","","html-keyboard-response","197","252568","0.0-9.0-0.0-1.20","null","<span style='color:GreenYellow; font-size: 70px;'>正确! </span>","null","","","","","","","","","","","","","","","","","","","","","","","feedback_test"
"","","","","","psychophysics","198","254288","0.0-9.0-0.0-0.21","570","","j","","","","","","","","","","","","","key","j","16.666000000000007","720","446","j","true","img/S_ambi40.png","方形","prac_word_first",""
"","","","","","html-keyboard-response","199","254594","0.0-9.0-0.0-1.21","null","<span style='color:GreenYellow; font-size: 70px;'>正确! </span>","null","","","","","","","","","","","","","","","","","","","","","","","feedback_test"
"","","","","","psychophysics","200","256222","0.0-9.0-0.0-0.22","475","","j","","","","","","","","","","","","","key","j","16.66600000000014","720","446","j","true","img/T_ambi40.png","三角","prac_word_first",""
"","","","","","html-keyboard-response","201","256528","0.0-9.0-0.0-1.22","null","<span style='color:GreenYellow; font-size: 70px;'>正确! </span>","null","","","","","","","","","","","","","","","","","","","","","","","feedback_test"
"","","","","","psychophysics","202","258271","0.0-9.0-0.0-0.23","590","","f","","","","","","","","","","","","","key","f","16.66600000000024","720","446","f","true","img/S_ambi40.png","三角","prac_word_first",""
"","","","","","html-keyboard-response","203","258574","0.0-9.0-0.0-1.23","null","<span style='color:GreenYellow; font-size: 70px;'>正确! </span>","null","","","","","","","","","","","","","","","","","","","","","","","feedback_test"
"","","","","","psychophysics","204","260295","0.0-9.0-0.0-0.24","568","","j","","","","","","","","","","","","","key","j","16.666000000000007","720","446","j","true","img/T_ambi40.png","三角","prac_word_first",""
"","","","","","html-keyboard-response","205","260596","0.0-9.0-0.0-1.24","null","<span style='color:GreenYellow; font-size: 70px;'>正确! </span>","null","","","","","","","","","","","","","","","","","","","","","","","feedback_test"
"","","","","","psychophysics","206","262235","0.0-9.0-0.0-0.25","487","","f","","","","","","","","","","","","","key","f","16.66600000000014","720","446","f","true","img/C_ambi40.png","方形","prac_word_first",""
"","","","","","html-keyboard-response","207","262536","0.0-9.0-0.0-1.25","null","<span style='color:GreenYellow; font-size: 70px;'>正确! </span>","null","","","","","","","","","","","","","","","","","","","","","","","feedback_test"
"","","","","","psychophysics","208","264304","0.0-9.0-0.0-0.26","617","","j","","","","","","","","","","","","","key","j","16.665999999999933","720","446","j","true","img/T_ambi40.png","三角","prac_word_first",""
"","","","","","html-keyboard-response","209","264609","0.0-9.0-0.0-1.26","null","<span style='color:GreenYellow; font-size: 70px;'>正确! </span>","null","","","","","","","","","","","","","","","","","","","","","","","feedback_test"
"","","","","","psychophysics","210","266214","0.0-9.0-0.0-0.27","454","","f","","","","","","","","","","","","","key","f","16.742705263157596","720","446","f","true","img/S_ambi40.png","三角","prac_word_first",""
"","","","","","html-keyboard-response","211","266517","0.0-9.0-0.0-1.27","null","<span style='color:GreenYellow; font-size: 70px;'>正确! </span>","null","","","","","","","","","","","","","","","","","","","","","","","feedback_test"
"","","","","","psychophysics","212","268014","0.0-9.0-0.0-0.28","344","","j","","","","","","","","","","","","","key","j","16.66600000000038","720","446","f","false","img/C_ambi40.png","三角","prac_word_first",""
"","","","","","html-keyboard-response","213","268315","0.0-9.0-0.0-1.28","null","<span style='color:red; font-size: 70px;'>错误! </span>","null","","","","","","","","","","","","","","","","","","","","","","","feedback_test"
"","","","","","psychophysics","214","270018","0.0-9.0-0.0-0.29","551","","f","","","","","","","","","","","","","key","f","16.666000000000032","720","446","f","true","img/T_ambi40.png","方形","prac_word_first",""
"","","","","","html-keyboard-response","215","270319","0.0-9.0-0.0-1.29","null","<span style='color:GreenYellow; font-size: 70px;'>正确! </span>","null","","","","","","","","","","","","","","","","","","","","","","","feedback_test"
"","","","","","psychophysics","216","271976","0.0-9.0-0.0-0.30","504","","f","","","","","","","","","","","","","key","f","16.665999999999816","720","446","f","true","img/T_ambi40.png","圆形","prac_word_first",""
"","","","","","html-keyboard-response","217","272278","0.0-9.0-0.0-1.30","null","<span style='color:GreenYellow; font-size: 70px;'>正确! </span>","null","","","","","","","","","","","","","","","","","","","","","","","feedback_test"
"","","","","","psychophysics","218","274382","0.0-9.0-0.0-0.31","952","","j","","","","","","","","","","","","","key","j","16.666","720","446","j","true","img/C_ambi40.png","圆形","prac_word_first",""
"","","","","","html-keyboard-response","219","274683","0.0-9.0-0.0-1.31","null","<span style='color:GreenYellow; font-size: 70px;'>正确! </span>","null","","","","","","","","","","","","","","","","","","","","","","","feedback_test"
"","","","","","psychophysics","220","276478","0.0-9.0-0.0-0.32","643","","j","","","","","","","","","","","","","key","j","16.665999999999887","720","446","j","true","img/S_ambi40.png","方形","prac_word_first",""
"","","","","","html-keyboard-response","221","276784","0.0-9.0-0.0-1.32","null","<span style='color:GreenYellow; font-size: 70px;'>正确! </span>","null","","","","","","","","","","","","","","","","","","","","","","","feedback_test"
"","","","","","psychophysics","222","278391","0.0-9.0-0.0-0.33","455","","j","","","","","","","","","","","","","key","j","16.665999999999865","720","446","j","true","img/S_ambi40.png","方形","prac_word_first",""
"","","","","","html-keyboard-response","223","278694","0.0-9.0-0.0-1.33","null","<span style='color:GreenYellow; font-size: 70px;'>正确! </span>","null","","","","","","","","","","","","","","","","","","","","","","","feedback_test"
"","","","","","psychophysics","224","280253","0.0-9.0-0.0-0.34","406","","f","","","","","","","","","","","","","key","f","16.66599999999997","720","446","f","true","img/S_ambi40.png","圆形","prac_word_first",""
"","","","","","html-keyboard-response","225","280554","0.0-9.0-0.0-1.34","null","<span style='color:GreenYellow; font-size: 70px;'>正确! </span>","null","","","","","","","","","","","","","","","","","","","","","","","feedback_test"
"","","","","","psychophysics","226","282213","0.0-9.0-0.0-0.35","508","","j","","","","","","","","","","","","","key","j","16.665999999999816","720","446","j","true","img/C_ambi40.png","圆形","prac_word_first",""
"","","","","","html-keyboard-response","227","282516","0.0-9.0-0.0-1.35","null","<span style='color:GreenYellow; font-size: 70px;'>正确! </span>","null","","","","","","","","","","","","","","","","","","","","","","","feedback_test"
"","","","","","psychophysics","228","284147","0.0-9.0-0.0-0.36","477","","f","","","","","","","","","","","","","key","f","16.66599999999954","720","446","f","true","img/C_ambi40.png","三角","prac_word_first",""
"","","","","","html-keyboard-response","229","284452","0.0-9.0-0.0-1.36","null","<span style='color:GreenYellow; font-size: 70px;'>正确! </span>","null","","","","","","","","","","","","","","","","","","","","","","","feedback_test"
"","","","","","psychophysics","230","286106","0.0-9.0-0.0-0.37","502","","j","","","","","","","","","","","","","key","j","16.659234693877956","720","446","j","true","img/S_ambi40.png","方形","prac_word_first",""
"","","","","","html-keyboard-response","231","286409","0.0-9.0-0.0-1.37","null","<span style='color:GreenYellow; font-size: 70px;'>正确! </span>","null","","","","","","","","","","","","","","","","","","","","","","","feedback_test"
"","","","","","psychophysics","232","288219","0.0-9.0-0.0-0.38","659","","j","","","","","","","","","","","","","key","j","16.665999999999887","720","446","f","false","img/T_ambi40.png","方形","prac_word_first",""
"","","","","","html-keyboard-response","233","288525","0.0-9.0-0.0-1.38","null","<span style='color:red; font-size: 70px;'>错误! </span>","null","","","","","","","","","","","","","","","","","","","","","","","feedback_test"
"","","","","","psychophysics","234","290153","0.0-9.0-0.0-0.39","477","","j","","","","","","","","","","","","","key","j","16.66600000000014","720","446","j","true","img/C_ambi40.png","圆形","prac_word_first",""
"","","","","","html-keyboard-response","235","290459","0.0-9.0-0.0-1.39","null","<span style='color:GreenYellow; font-size: 70px;'>正确! </span>","null","","","","","","","","","","","","","","","","","","","","","","","feedback_test"
"","","","","","psychophysics","236","292269","0.0-9.0-0.0-0.40","659","","j","","","","","","","","","","","","","key","j","16.665999999999887","720","446","j","true","img/S_ambi40.png","方形","prac_word_first",""
"","","","","","html-keyboard-response","237","292571","0.0-9.0-0.0-1.40","null","<span style='color:GreenYellow; font-size: 70px;'>正确! </span>","null","","","","","","","","","","","","","","","","","","","","","","","feedback_test"
"","","","","","psychophysics","238","294360","0.0-9.0-0.0-0.41","638","","j","","","","","","","","","","","","","key","j","16.666000000000185","720","446","f","false","img/T_ambi40.png","圆形","prac_word_first",""
"","","","","","html-keyboard-response","239","294664","0.0-9.0-0.0-1.41","null","<span style='color:red; font-size: 70px;'>错误! </span>","null","","","","","","","","","","","","","","","","","","","","","","","feedback_test"
"","","","","","psychophysics","240","296500","0.0-9.0-0.0-0.42","685","","f","","","","","","","","","","","","","key","f","16.666000000000377","720","446","f","true","img/S_ambi40.png","三角","prac_word_first",""
"","","","","","html-keyboard-response","241","296805","0.0-9.0-0.0-1.42","null","<span style='color:GreenYellow; font-size: 70px;'>正确! </span>","null","","","","","","","","","","","","","","","","","","","","","","","feedback_test"
"","","","","","psychophysics","242","298438","0.0-9.0-0.0-0.43","482","","f","","","","","","","","","","","","","key","f","16.66600000000014","720","446","f","true","img/S_ambi40.png","圆形","prac_word_first",""
"","","","","","html-keyboard-response","243","298739","0.0-9.0-0.0-1.43","null","<span style='color:GreenYellow; font-size: 70px;'>正确! </span>","null","","","","","","","","","","","","","","","","","","","","","","","feedback_test"
"","","","","","psychophysics","244","300367","0.0-9.0-0.0-0.44","476","","f","","","","","","","","","","","","","key","f","16.665999999999865","720","446","f","true","img/C_ambi40.png","方形","prac_word_first",""
"","","","","","html-keyboard-response","245","300672","0.0-9.0-0.0-1.44","null","<span style='color:GreenYellow; font-size: 70px;'>正确! </span>","null","","","","","","","","","","","","","","","","","","","","","","","feedback_test"
"","","","","","psychophysics","246","302619","0.0-9.0-0.0-0.45","795","","f","","","","","","","","","","","","","key","f","16.665999999999947","720","446","j","false","img/T_ambi40.png","三角","prac_word_first",""
"","","","","","html-keyboard-response","247","302925","0.0-9.0-0.0-1.45","null","<span style='color:red; font-size: 70px;'>错误! </span>","null","","","","","","","","","","","","","","","","","","","","","","","feedback_test"
"","","","","","psychophysics","248","304533","0.0-9.0-0.0-0.46","455","","j","","","","","","","","","","","","","key","j","16.666000000000196","720","446","j","true","img/T_ambi40.png","三角","prac_word_first",""
"","","","","","html-keyboard-response","249","304837","0.0-9.0-0.0-1.46","null","<span style='color:GreenYellow; font-size: 70px;'>正确! </span>","null","","","","","","","","","","","","","","","","","","","","","","","feedback_test"
"","","","","","psychophysics","250","306471","0.0-9.0-0.0-0.47","482","","j","","","","","","","","","","","","","key","j","16.641649484535986","720","446","j","true","img/C_ambi40.png","圆形","prac_word_first",""
"","","","","","html-keyboard-response","251","306776","0.0-9.0-0.0-1.47","null","<span style='color:GreenYellow; font-size: 70px;'>正确! </span>","null","","","","","","","","","","","","","","","","","","","","","","","feedback_test"
"","","","","","psychophysics","252","308697","0.0-9.0-0.0-0.48","767","","f","","","","","","","","","","","","","key","f","16.665999999999993","720","446","f","true","img/S_ambi40.png","三角","prac_word_first",""
"","","","","","html-keyboard-response","253","309003","0.0-9.0-0.0-1.48","null","<span style='color:GreenYellow; font-size: 70px;'>正确! </span>","null","","","","","","","","","","","","","","","","","","","","","","","feedback_test"
"","","","","","psychophysics","254","310722","0.0-9.0-0.0-0.49","567","","j","","","","","","","","","","","","","key","j","16.665999999999723","720","446","j","true","img/S_ambi40.png","方形","prac_word_first",""
"","","","","","html-keyboard-response","255","311024","0.0-9.0-0.0-1.49","null","<span style='color:GreenYellow; font-size: 70px;'>正确! </span>","null","","","","","","","","","","","","","","","","","","","","","","","feedback_test"
"","","","","","psychophysics","256","312679","0.0-9.0-0.0-0.50","503","","j","","","","","","","","","","","","","key","j","16.665999999999816","720","446","j","true","img/C_ambi40.png","圆形","prac_word_first",""
"","","","","","html-keyboard-response","257","312984","0.0-9.0-0.0-1.50","null","<span style='color:GreenYellow; font-size: 70px;'>正确! </span>","null","","","","","","","","","","","","","","","","","","","","","","","feedback_test"
"","","","","","psychophysics","258","314680","0.0-9.0-0.0-0.51","546","","f","","","","","","","","","","","","","key","f","16.665999999999766","720","446","j","false","img/T_ambi40.png","三角","prac_word_first",""
"","","","","","html-keyboard-response","259","314982","0.0-9.0-0.0-1.51","null","<span style='color:red; font-size: 70px;'>错误! </span>","null","","","","","","","","","","","","","","","","","","","","","","","feedback_test"
"","","","","","psychophysics","260","316635","0.0-9.0-0.0-0.52","502","","f","","","","","","","","","","","","","key","f","16.587428571428863","720","446","f","true","img/C_ambi40.png","方形","prac_word_first",""
"","","","","","html-keyboard-response","261","316940","0.0-9.0-0.0-1.52","null","<span style='color:GreenYellow; font-size: 70px;'>正确! </span>","null","","","","","","","","","","","","","","","","","","","","","","","feedback_test"
"","","","","","psychophysics","262","318841","0.0-9.0-0.0-0.53","750","","j","","","","","","","","","","","","","key","j","16.666000000000036","720","446","j","true","img/S_ambi40.png","方形","prac_word_first",""
"","","","","","html-keyboard-response","263","319147","0.0-9.0-0.0-1.53","null","<span style='color:GreenYellow; font-size: 70px;'>正确! </span>","null","","","","","","","","","","","","","","","","","","","","","","","feedback_test"
"","","","","","psychophysics","264","320759","0.0-9.0-0.0-0.54","459","","j","","","","","","","","","","","","","key","j","16.665999999999865","720","446","j","true","img/C_ambi40.png","圆形","prac_word_first",""
"","","","","","html-keyboard-response","265","321064","0.0-9.0-0.0-1.54","null","<span style='color:GreenYellow; font-size: 70px;'>正确! </span>","null","","","","","","","","","","","","","","","","","","","","","","","feedback_test"
"","","","","","psychophysics","266","322715","0.0-9.0-0.0-0.55","500","","f","","","","","","","","","","","","","key","f","16.665999999999816","720","446","f","true","img/C_ambi40.png","三角","prac_word_first",""
"","","","","","html-keyboard-response","267","323021","0.0-9.0-0.0-1.55","null","<span style='color:GreenYellow; font-size: 70px;'>正确! </span>","null","","","","","","","","","","","","","","","","","","","","","","","feedback_test"
"","","","","","psychophysics","268","325006","0.0-9.0-0.0-0.56","832","","f","","","","","","","","","","","","","key","f","16.665999999999904","720","446","f","true","img/T_ambi40.png","方形","prac_word_first",""
"","","","","","html-keyboard-response","269","325309","0.0-9.0-0.0-1.56","null","<span style='color:GreenYellow; font-size: 70px;'>正确! </span>","null","","","","","","","","","","","","","","","","","","","","","","","feedback_test"
"","","","","","psychophysics","270","327322","0.0-9.0-0.0-0.57","862","","f","","","","","","","","","","","","","key","f","16.66600000000013","720","446","f","true","img/S_ambi40.png","圆形","prac_word_first",""
"","","","","","html-keyboard-response","271","327628","0.0-9.0-0.0-1.57","null","<span style='color:GreenYellow; font-size: 70px;'>正确! </span>","null","","","","","","","","","","","","","","","","","","","","","","","feedback_test"
"","","","","","psychophysics","272","329331","0.0-9.0-0.0-0.58","552","","f","","","","","","","","","","","","","key","f","16.666000000000032","720","446","f","true","img/T_ambi40.png","圆形","prac_word_first",""
"","","","","","html-keyboard-response","273","329632","0.0-9.0-0.0-1.58","null","<span style='color:GreenYellow; font-size: 70px;'>正确! </span>","null","","","","","","","","","","","","","","","","","","","","","","","feedback_test"
"","","","","","psychophysics","274","331284","0.0-9.0-0.0-0.59","500","","j","","","","","","","","","","","","","key","j","16.665999999999816","720","446","j","true","img/T_ambi40.png","三角","prac_word_first",""
"","","","","","html-keyboard-response","275","331588","0.0-9.0-0.0-1.59","null","<span style='color:GreenYellow; font-size: 70px;'>正确! </span>","null","","","","","","","","","","","","","","","","","","","","","","","feedback_test"
"","","","","","psychophysics","276","333534","0.0-9.0-0.0-0.60","793","","j","","","","","","","","","","","","","key","j","16.665999999999947","720","446","j","true","img/C_ambi40.png","圆形","prac_word_first",""
"","","","","","html-keyboard-response","277","333839","0.0-9.0-0.0-1.60","null","<span style='color:GreenYellow; font-size: 70px;'>正确! </span>","null","","","","","","","","","","","","","","","","","","","","","","","feedback_test"
"","","","","","psychophysics","278","335674","0.0-9.0-0.0-0.61","684","","j","","","","","","","","","","","","","key","j","16.668722222222303","720","446","j","true","img/T_ambi40.png","三角","prac_word_first",""
"","","","","","html-keyboard-response","279","335979","0.0-9.0-0.0-1.61","null","<span style='color:GreenYellow; font-size: 70px;'>正确! </span>","null","","","","","","","","","","","","","","","","","","","","","","","feedback_test"
"","","","","","psychophysics","280","337674","0.0-9.0-0.0-0.62","543","","j","","","","","","","","","","","","","key","j","16.665999999999766","720","446","f","false","img/S_ambi40.png","三角","prac_word_first",""
"","","","","","html-keyboard-response","281","337977","0.0-9.0-0.0-1.62","null","<span style='color:red; font-size: 70px;'>错误! </span>","null","","","","","","","","","","","","","","","","","","","","","","","feedback_test"
"","","","","","psychophysics","282","339608","0.0-9.0-0.0-0.63","479","","j","","","","","","","","","","","","","key","j","16.66600000000014","720","446","j","true","img/T_ambi40.png","三角","prac_word_first",""
"","","","","","html-keyboard-response","283","339914","0.0-9.0-0.0-1.63","null","<span style='color:GreenYellow; font-size: 70px;'>正确! </span>","null","","","","","","","","","","","","","","","","","","","","","","","feedback_test"
"","","","","","psychophysics","284","341594","0.0-9.0-0.0-0.64","528","","j","","","","","","","","","","","","","key","j","16.66600000000035","720","446","j","true","img/S_ambi40.png","方形","prac_word_first",""
"","","","","","html-keyboard-response","285","341900","0.0-9.0-0.0-1.64","null","<span style='color:GreenYellow; font-size: 70px;'>正确! </span>","null","","","","","","","","","","","","","","","","","","","","","","","feedback_test"
"","","","","","psychophysics","286","343569","0.0-9.0-0.0-0.65","515","","f","","","","","","","","","","","","","key","f","16.666000000000086","720","446","f","true","img/C_ambi40.png","方形","prac_word_first",""
"","","","","","html-keyboard-response","287","343874","0.0-9.0-0.0-1.65","null","<span style='color:GreenYellow; font-size: 70px;'>正确! </span>","null","","","","","","","","","","","","","","","","","","","","","","","feedback_test"
"","","","","","psychophysics","288","345616","0.0-9.0-0.0-0.66","590","","f","","","","","","","","","","","","","key","f","16.665999999999983","720","446","f","true","img/S_ambi40.png","圆形","prac_word_first",""
"","","","","","html-keyboard-response","289","345922","0.0-9.0-0.0-1.66","null","<span style='color:GreenYellow; font-size: 70px;'>正确! </span>","null","","","","","","","","","","","","","","","","","","","","","","","feedback_test"
"","","","","","psychophysics","290","347665","0.0-9.0-0.0-0.67","590","","j","","","","","","","","","","","","","key","j","16.665999999999983","720","446","j","true","img/C_ambi40.png","圆形","prac_word_first",""
"","","","","","html-keyboard-response","291","347971","0.0-9.0-0.0-1.67","null","<span style='color:GreenYellow; font-size: 70px;'>正确! </span>","null","","","","","","","","","","","","","","","","","","","","","","","feedback_test"
"","","","","","psychophysics","292","349598","0.0-9.0-0.0-0.68","475","","f","","","","","","","","","","","","","key","f","16.66600000000014","720","446","f","true","img/T_ambi40.png","方形","prac_word_first",""
"","","","","","html-keyboard-response","293","349902","0.0-9.0-0.0-1.68","null","<span style='color:GreenYellow; font-size: 70px;'>正确! </span>","null","","","","","","","","","","","","","","","","","","","","","","","feedback_test"
"","","","","","psychophysics","294","351714","0.0-9.0-0.0-0.69","659","","j","","","","","","","","","","","","","key","j","16.666000000000135","720","446","j","true","img/S_ambi40.png","方形","prac_word_first",""
"","","","","","html-keyboard-response","295","352020","0.0-9.0-0.0-1.69","null","<span style='color:GreenYellow; font-size: 70px;'>正确! </span>","null","","","","","","","","","","","","","","","","","","","","","","","feedback_test"
"","","","","","psychophysics","296","353583","0.0-9.0-0.0-0.70","409","","f","","","","","","","","","","","","","key","f","16.666000000000256","720","446","f","true","img/T_ambi40.png","圆形","prac_word_first",""
"","","","","","html-keyboard-response","297","353888","0.0-9.0-0.0-1.70","null","<span style='color:GreenYellow; font-size: 70px;'>正确! </span>","null","","","","","","","","","","","","","","","","","","","","","","","feedback_test"
"","","","","","psychophysics","298","355608","0.0-9.0-0.0-0.71","568","","f","","","","","","","","","","","","","key","f","16.606490196078084","720","446","f","true","img/C_ambi40.png","三角","prac_word_first",""
"","","","","","html-keyboard-response","299","355910","0.0-9.0-0.0-1.71","null","<span style='color:GreenYellow; font-size: 70px;'>正确! </span>","null","","","","","","","","","","","","","","","","","","","","","","","feedback_test"
"","","","","","html-keyboard-response","300","381978","0.0-10.0","26064","<style>.context{color:white; font-size: 35px; line-height:40px}</style>                            <div><p class='context'>您正确回答了90% 的试次。</p><p class='context'>您的平均反应时为560毫秒。</p><p class='context'>恭喜您完成练习。按任意键进入<span style='color: yellow;'>图形和文字同时呈现条件</span>的练习。</p></div>","j","","","","","","","","","","","","","","","","","","","","","","",""
"","","","","","psychophysics","301","383708","0.0-11.0-0.0-0.0","624","","j","","","","","","","","","","","","","key","j","16.6051747572814","720","446","j","true","img/S_ambi40.png","方形","prac_simultaneous",""
"","","","","","html-keyboard-response","302","384013","0.0-11.0-0.0-1.0","null","<span style='color:GreenYellow; font-size: 70px;'>正确! </span>","null","","","","","","","","","","","","","","","","","","","","","","","feedback_test"
"","","","","","psychophysics","303","385665","0.0-11.0-0.0-0.1","544","","f","","","","","","","","","","","","","key","f","16.665999999999816","720","446","f","true","img/C_ambi40.png","三角","prac_simultaneous",""
"","","","","","html-keyboard-response","304","385971","0.0-11.0-0.0-1.1","null","<span style='color:GreenYellow; font-size: 70px;'>正确! </span>","null","","","","","","","","","","","","","","","","","","","","","","","feedback_test"
"","","","","","psychophysics","305","387763","0.0-11.0-0.0-0.2","689","","j","","","","","","","","","","","","","key","j","16.66600000000043","720","446","f","false","img/T_ambi40.png","方形","prac_simultaneous",""
"","","","","","html-keyboard-response","306","388066","0.0-11.0-0.0-1.2","null","<span style='color:red; font-size: 70px;'>错误! </span>","null","","","","","","","","","","","","","","","","","","","","","","","feedback_test"
"","","","","","psychophysics","307","389738","0.0-11.0-0.0-0.3","569","","j","","","","","","","","","","","","","key","j","16.666000000000086","720","446","j","true","img/C_ambi40.png","圆形","prac_simultaneous",""
"","","","","","html-keyboard-response","308","390039","0.0-11.0-0.0-1.3","null","<span style='color:GreenYellow; font-size: 70px;'>正确! </span>","null","","","","","","","","","","","","","","","","","","","","","","","feedback_test"
"","","","","","psychophysics","309","391992","0.0-11.0-0.0-0.4","852","","f","","","","","","","","","","","","","key","f","16.665999999999947","720","446","f","true","img/S_ambi40.png","圆形","prac_simultaneous",""
"","","","","","html-keyboard-response","310","392297","0.0-11.0-0.0-1.4","null","<span style='color:GreenYellow; font-size: 70px;'>正确! </span>","null","","","","","","","","","","","","","","","","","","","","","","","feedback_test"
"","","","","","psychophysics","311","394081","0.0-11.0-0.0-0.5","682","","j","","","","","","","","","","","","","key","j","16.666000000000185","720","446","j","true","img/S_ambi40.png","方形","prac_simultaneous",""
"","","","","","html-keyboard-response","312","394384","0.0-11.0-0.0-1.5","null","<span style='color:GreenYellow; font-size: 70px;'>正确! </span>","null","","","","","","","","","","","","","","","","","","","","","","","feedback_test"
"","","","","","psychophysics","313","396084","0.0-11.0-0.0-0.6","597","","f","","","","","","","","","","","","","key","f","16.666000000000032","720","446","f","true","img/T_ambi40.png","圆形","prac_simultaneous",""
"","","","","","html-keyboard-response","314","396390","0.0-11.0-0.0-1.6","null","<span style='color:GreenYellow; font-size: 70px;'>正确! </span>","null","","","","","","","","","","","","","","","","","","","","","","","feedback_test"
"","","","","","psychophysics","315","398241","0.0-11.0-0.0-0.7","749","","f","","","","","","","","","","","","","key","f","16.666000000000086","720","446","f","true","img/C_ambi40.png","方形","prac_simultaneous",""
"","","","","","html-keyboard-response","316","398546","0.0-11.0-0.0-1.7","null","<span style='color:GreenYellow; font-size: 70px;'>正确! </span>","null","","","","","","","","","","","","","","","","","","","","","","","feedback_test"
"","","","","","psychophysics","317","400228","0.0-11.0-0.0-0.8","580","","f","","","","","","","","","","","","","key","f","16.66600000000035","720","446","j","false","img/C_ambi40.png","圆形","prac_simultaneous",""
"","","","","","html-keyboard-response","318","400531","0.0-11.0-0.0-1.8","null","<span style='color:red; font-size: 70px;'>错误! </span>","null","","","","","","","","","","","","","","","","","","","","","","","feedback_test"
"","","","","","psychophysics","319","402746","0.0-11.0-0.0-0.9","1113","","f","","","","","","","","","","","","","key","f","16.6607651515153","720","446","f","true","img/S_ambi40.png","三角","prac_simultaneous",""
"","","","","","html-keyboard-response","320","403047","0.0-11.0-0.0-1.9","null","<span style='color:GreenYellow; font-size: 70px;'>正确! </span>","null","","","","","","","","","","","","","","","","","","","","","","","feedback_test"
"","","","","","psychophysics","321","404858","0.0-11.0-0.0-0.10","709","","j","","","","","","","","","","","","","key","j","16.666000000000135","720","446","j","true","img/T_ambi40.png","三角","prac_simultaneous",""
"","","","","","html-keyboard-response","322","405164","0.0-11.0-0.0-1.10","null","<span style='color:GreenYellow; font-size: 70px;'>正确! </span>","null","","","","","","","","","","","","","","","","","","","","","","","feedback_test"
"","","","","","psychophysics","323","406930","0.0-11.0-0.0-0.11","664","","j","","","","","","","","","","","","","key","j","16.665999999999933","720","446","j","true","img/T_ambi40.png","三角","prac_simultaneous",""
"","","","","","html-keyboard-response","324","407234","0.0-11.0-0.0-1.11","null","<span style='color:GreenYellow; font-size: 70px;'>正确! </span>","null","","","","","","","","","","","","","","","","","","","","","","","feedback_test"
"","","","","","psychophysics","325","408885","0.0-11.0-0.0-0.12","545","","f","","","","","","","","","","","","","key","f","16.66600000000041","720","446","f","true","img/T_ambi40.png","方形","prac_simultaneous",""
"","","","","","html-keyboard-response","326","409189","0.0-11.0-0.0-1.12","null","<span style='color:GreenYellow; font-size: 70px;'>正确! </span>","null","","","","","","","","","","","","","","","","","","","","","","","feedback_test"
"","","","","","psychophysics","327","411022","0.0-11.0-0.0-0.13","731","","f","","","","","","","","","","","","","key","f","16.665999999999595","720","446","f","true","img/C_ambi40.png","方形","prac_simultaneous",""
"","","","","","html-keyboard-response","328","411328","0.0-11.0-0.0-1.13","null","<span style='color:GreenYellow; font-size: 70px;'>正确! </span>","null","","","","","","","","","","","","","","","","","","","","","","","feedback_test"
"","","","","","psychophysics","329","412940","0.0-11.0-0.0-0.14","511","","f","","","","","","","","","","","","","key","f","16.666000000000196","720","446","f","true","img/S_ambi40.png","圆形","prac_simultaneous",""
"","","","","","html-keyboard-response","330","413242","0.0-11.0-0.0-1.14","null","<span style='color:GreenYellow; font-size: 70px;'>正确! </span>","null","","","","","","","","","","","","","","","","","","","","","","","feedback_test"
"","","","","","psychophysics","331","415614","0.0-11.0-0.0-0.15","1271","","f","","","","","","","","","","","","","key","f","16.66599999999971","720","446","f","true","img/C_ambi40.png","三角","prac_simultaneous",""
"","","","","","html-keyboard-response","332","415918","0.0-11.0-0.0-1.15","null","<span style='color:GreenYellow; font-size: 70px;'>正确! </span>","null","","","","","","","","","","","","","","","","","","","","","","","feedback_test"
"","","","","","psychophysics","333","417598","0.0-11.0-0.0-0.16","577","","f","","","","","","","","","","","","","key","f","16.665999999999766","720","446","j","false","img/T_ambi40.png","三角","prac_simultaneous",""
"","","","","","html-keyboard-response","334","417900","0.0-11.0-0.0-1.16","null","<span style='color:red; font-size: 70px;'>错误! </span>","null","","","","","","","","","","","","","","","","","","","","","","","feedback_test"
"","","","","","psychophysics","335","419663","0.0-11.0-0.0-0.17","660","","j","","","","","","","","","","","","","key","j","16.665999999999933","720","446","j","true","img/T_ambi40.png","三角","prac_simultaneous",""
"","","","","","html-keyboard-response","336","419965","0.0-11.0-0.0-1.17","null","<span style='color:GreenYellow; font-size: 70px;'>正确! </span>","null","","","","","","","","","","","","","","","","","","","","","","","feedback_test"
"","","","","","psychophysics","337","421645","0.0-11.0-0.0-0.18","577","","j","","","","","","","","","","","","","key","j","16.665999999999766","720","446","j","true","img/C_ambi40.png","圆形","prac_simultaneous",""
"","","","","","html-keyboard-response","338","421946","0.0-11.0-0.0-1.18","null","<span style='color:GreenYellow; font-size: 70px;'>正确! </span>","null","","","","","","","","","","","","","","","","","","","","","","","feedback_test"
"","","","","","psychophysics","339","423534","0.0-11.0-0.0-0.19","487","","j","","","","","","","","","","","","","key","j","16.695797872340105","720","446","j","true","img/C_ambi40.png","圆形","prac_simultaneous",""
"","","","","","html-keyboard-response","340","423840","0.0-11.0-0.0-1.19","null","<span style='color:GreenYellow; font-size: 70px;'>正确! </span>","null","","","","","","","","","","","","","","","","","","","","","","","feedback_test"
"","","","","","psychophysics","341","425492","0.0-11.0-0.0-0.20","549","","f","","","","","","","","","","","","","key","f","16.665999999999816","720","446","f","true","img/S_ambi40.png","三角","prac_simultaneous",""
"","","","","","html-keyboard-response","342","425797","0.0-11.0-0.0-1.20","null","<span style='color:GreenYellow; font-size: 70px;'>正确! </span>","null","","","","","","","","","","","","","","","","","","","","","","","feedback_test"
"","","","","","psychophysics","343","427516","0.0-11.0-0.0-0.21","616","","j","","","","","","","","","","","","","key","j","16.665999999999723","720","446","j","true","img/S_ambi40.png","方形","prac_simultaneous",""
"","","","","","html-keyboard-response","344","427819","0.0-11.0-0.0-1.21","null","<span style='color:GreenYellow; font-size: 70px;'>正确! </span>","null","","","","","","","","","","","","","","","","","","","","","","","feedback_test"
"","","","","","psychophysics","345","429451","0.0-11.0-0.0-0.22","529","","f","","","","","","","","","","","","","key","f","16.66599999999954","720","446","f","true","img/T_ambi40.png","圆形","prac_simultaneous",""
"","","","","","html-keyboard-response","346","429752","0.0-11.0-0.0-1.22","null","<span style='color:GreenYellow; font-size: 70px;'>正确! </span>","null","","","","","","","","","","","","","","","","","","","","","","","feedback_test"
"","","","","","psychophysics","347","431340","0.0-11.0-0.0-0.23","485","","j","","","","","","","","","","","","","key","j","16.665999999999915","720","446","j","true","img/S_ambi40.png","方形","prac_simultaneous",""
"","","","","","html-keyboard-response","348","431646","0.0-11.0-0.0-1.23","null","<span style='color:GreenYellow; font-size: 70px;'>正确! </span>","null","","","","","","","","","","","","","","","","","","","","","","","feedback_test"
"","","","","","psychophysics","349","433273","0.0-11.0-0.0-0.24","524","","j","","","","","","","","","","","","","key","j","16.665999999999865","720","446","j","true","img/T_ambi40.png","三角","prac_simultaneous",""
"","","","","","html-keyboard-response","350","433579","0.0-11.0-0.0-1.24","null","<span style='color:GreenYellow; font-size: 70px;'>正确! </span>","null","","","","","","","","","","","","","","","","","","","","","","","feedback_test"
"","","","","","psychophysics","351","435436","0.0-11.0-0.0-0.25","756","","f","","","","","","","","","","","","","key","f","16.666000000000086","720","446","f","true","img/T_ambi40.png","方形","prac_simultaneous",""
"","","","","","html-keyboard-response","352","435742","0.0-11.0-0.0-1.25","null","<span style='color:GreenYellow; font-size: 70px;'>正确! </span>","null","","","","","","","","","","","","","","","","","","","","","","","feedback_test"
"","","","","","psychophysics","353","437347","0.0-11.0-0.0-0.26","503","","f","","","","","","","","","","","","","key","f","16.665999999999585","720","446","f","true","img/C_ambi40.png","三角","prac_simultaneous",""
"","","","","","html-keyboard-response","354","437652","0.0-11.0-0.0-1.26","null","<span style='color:GreenYellow; font-size: 70px;'>正确! </span>","null","","","","","","","","","","","","","","","","","","","","","","","feedback_test"
"","","","","","psychophysics","355","439399","0.0-11.0-0.0-0.27","643","","f","","","","","","","","","","","","","key","f","16.665999999999677","720","446","f","true","img/C_ambi40.png","方形","prac_simultaneous",""
"","","","","","html-keyboard-response","356","439704","0.0-11.0-0.0-1.27","null","<span style='color:GreenYellow; font-size: 70px;'>正确! </span>","null","","","","","","","","","","","","","","","","","","","","","","","feedback_test"
"","","","","","psychophysics","357","441375","0.0-11.0-0.0-0.28","569","","j","","","","","","","","","","","","","key","j","16.666000000000086","720","446","j","true","img/S_ambi40.png","方形","prac_simultaneous",""
"","","","","","html-keyboard-response","358","441680","0.0-11.0-0.0-1.28","null","<span style='color:GreenYellow; font-size: 70px;'>正确! </span>","null","","","","","","","","","","","","","","","","","","","","","","","feedback_test"
"","","","","","psychophysics","359","443400","0.0-11.0-0.0-0.29","616","","j","","","","","","","","","","","","","key","j","16.61137254901947","720","446","j","true","img/C_ambi40.png","圆形","prac_simultaneous",""
"","","","","","html-keyboard-response","360","443702","0.0-11.0-0.0-1.29","null","<span style='color:GreenYellow; font-size: 70px;'>正确! </span>","null","","","","","","","","","","","","","","","","","","","","","","","feedback_test"
"","","","","","psychophysics","361","445357","0.0-11.0-0.0-0.30","554","","f","","","","","","","","","","","","","key","f","16.66600000000041","720","446","f","true","img/S_ambi40.png","三角","prac_simultaneous",""
"","","","","","html-keyboard-response","362","445663","0.0-11.0-0.0-1.30","null","<span style='color:GreenYellow; font-size: 70px;'>正确! </span>","null","","","","","","","","","","","","","","","","","","","","","","","feedback_test"
"","","","","","psychophysics","363","447337","0.0-11.0-0.0-0.31","570","","f","","","","","","","","","","","","","key","f","16.665999999999766","720","446","f","true","img/S_ambi40.png","圆形","prac_simultaneous",""
"","","","","","html-keyboard-response","364","447638","0.0-11.0-0.0-1.31","null","<span style='color:GreenYellow; font-size: 70px;'>正确! </span>","null","","","","","","","","","","","","","","","","","","","","","","","feedback_test"
"","","","","","psychophysics","365","449455","0.0-11.0-0.0-0.32","715","","j","","","","","","","","","","","","","key","j","16.665999999999595","720","446","j","true","img/T_ambi40.png","三角","prac_simultaneous",""
"","","","","","html-keyboard-response","366","449761","0.0-11.0-0.0-1.32","null","<span style='color:GreenYellow; font-size: 70px;'>正确! </span>","null","","","","","","","","","","","","","","","","","","","","","","","feedback_test"
"","","","","","psychophysics","367","451409","0.0-11.0-0.0-0.33","546","","j","","","","","","","","","","","","","key","j","16.665999999999816","720","446","j","true","img/S_ambi40.png","方形","prac_simultaneous",""
"","","","","","html-keyboard-response","368","451715","0.0-11.0-0.0-1.33","null","<span style='color:GreenYellow; font-size: 70px;'>正确! </span>","null","","","","","","","","","","","","","","","","","","","","","","","feedback_test"
"","","","","","psychophysics","369","453343","0.0-11.0-0.0-0.34","526","","j","","","","","","","","","","","","","key","j","16.66600000000014","720","446","j","true","img/C_ambi40.png","圆形","prac_simultaneous",""
"","","","","","html-keyboard-response","370","453644","0.0-11.0-0.0-1.34","null","<span style='color:GreenYellow; font-size: 70px;'>正确! </span>","null","","","","","","","","","","","","","","","","","","","","","","","feedback_test"
"","","","","","psychophysics","371","455259","0.0-11.0-0.0-0.35","512","","f","","","","","","","","","","","","","key","f","16.665999999999865","720","446","f","true","img/T_ambi40.png","圆形","prac_simultaneous",""
"","","","","","html-keyboard-response","372","455564","0.0-11.0-0.0-1.35","null","<span style='color:GreenYellow; font-size: 70px;'>正确! </span>","null","","","","","","","","","","","","","","","","","","","","","","","feedback_test"
"","","","","","psychophysics","373","457218","0.0-11.0-0.0-0.36","550","","j","","","","","","","","","","","","","key","j","16.665999999999816","720","446","j","true","img/T_ambi40.png","三角","prac_simultaneous",""
"","","","","","html-keyboard-response","374","457523","0.0-11.0-0.0-1.36","null","<span style='color:GreenYellow; font-size: 70px;'>正确! </span>","null","","","","","","","","","","","","","","","","","","","","","","","feedback_test"
"","","","","","psychophysics","375","459215","0.0-11.0-0.0-0.37","584","","f","","","","","","","","","","","","","key","f","16.66600000000035","720","446","f","true","img/C_ambi40.png","方形","prac_simultaneous",""
"","","","","","html-keyboard-response","376","459520","0.0-11.0-0.0-1.37","null","<span style='color:GreenYellow; font-size: 70px;'>正确! </span>","null","","","","","","","","","","","","","","","","","","","","","","","feedback_test"
"","","","","","psychophysics","377","461243","0.0-11.0-0.0-0.38","622","","f","","","","","","","","","","","","","key","f","16.665999999999723","720","446","f","true","img/S_ambi40.png","三角","prac_simultaneous",""
"","","","","","html-keyboard-response","378","461547","0.0-11.0-0.0-1.38","null","<span style='color:GreenYellow; font-size: 70px;'>正确! </span>","null","","","","","","","","","","","","","","","","","","","","","","","feedback_test"
"","","","","","psychophysics","379","463135","0.0-11.0-0.0-0.39","486","","f","","","","","","","","","","","","","key","f","16.588694736842484","720","446","f","true","img/C_ambi40.png","三角","prac_simultaneous",""
"","","","","","html-keyboard-response","380","463440","0.0-11.0-0.0-1.39","null","<span style='color:GreenYellow; font-size: 70px;'>正确! </span>","null","","","","","","","","","","","","","","","","","","","","","","","feedback_test"
"","","","","","psychophysics","381","465137","0.0-11.0-0.0-0.40","594","","j","","","","","","","","","","","","","key","j","16.666000000000032","720","446","j","true","img/S_ambi40.png","方形","prac_simultaneous",""
"","","","","","html-keyboard-response","382","465438","0.0-11.0-0.0-1.40","null","<span style='color:GreenYellow; font-size: 70px;'>正确! </span>","null","","","","","","","","","","","","","","","","","","","","","","","feedback_test"
"","","","","","psychophysics","383","467069","0.0-11.0-0.0-0.41","529","","f","","","","","","","","","","","","","key","f","16.66600000000014","720","446","f","true","img/T_ambi40.png","方形","prac_simultaneous",""
"","","","","","html-keyboard-response","384","467370","0.0-11.0-0.0-1.41","null","<span style='color:GreenYellow; font-size: 70px;'>正确! </span>","null","","","","","","","","","","","","","","","","","","","","","","","feedback_test"
"","","","","","psychophysics","385","469072","0.0-11.0-0.0-0.42","598","","f","","","","","","","","","","","","","key","f","16.665999999999457","720","446","j","false","img/C_ambi40.png","圆形","prac_simultaneous",""
"","","","","","html-keyboard-response","386","469378","0.0-11.0-0.0-1.42","null","<span style='color:red; font-size: 70px;'>错误! </span>","null","","","","","","","","","","","","","","","","","","","","","","","feedback_test"
"","","","","","psychophysics","387","470962","0.0-11.0-0.0-0.43","483","","f","","","","","","","","","","","","","key","f","16.665999999999915","720","446","f","true","img/T_ambi40.png","圆形","prac_simultaneous",""
"","","","","","html-keyboard-response","388","471264","0.0-11.0-0.0-1.43","null","<span style='color:GreenYellow; font-size: 70px;'>正确! </span>","null","","","","","","","","","","","","","","","","","","","","","","","feedback_test"
"","","","","","psychophysics","389","472899","0.0-11.0-0.0-0.44","534","","j","","","","","","","","","","","","","key","j","16.66600000000014","720","446","j","true","img/C_ambi40.png","圆形","prac_simultaneous",""
"","","","","","html-keyboard-response","390","473205","0.0-11.0-0.0-1.44","null","<span style='color:GreenYellow; font-size: 70px;'>正确! </span>","null","","","","","","","","","","","","","","","","","","","","","","","feedback_test"
"","","","","","psychophysics","391","474883","0.0-11.0-0.0-0.45","575","","j","","","","","","","","","","","","","key","j","16.665999999999766","720","446","j","true","img/T_ambi40.png","三角","prac_simultaneous",""
"","","","","","html-keyboard-response","392","475188","0.0-11.0-0.0-1.45","null","<span style='color:GreenYellow; font-size: 70px;'>正确! </span>","null","","","","","","","","","","","","","","","","","","","","","","","feedback_test"
"","","","","","psychophysics","393","476902","0.0-11.0-0.0-0.46","612","","j","","","","","","","","","","","","","key","j","16.665999999999723","720","446","j","true","img/S_ambi40.png","方形","prac_simultaneous",""
"","","","","","html-keyboard-response","394","477206","0.0-11.0-0.0-1.46","null","<span style='color:GreenYellow; font-size: 70px;'>正确! </span>","null","","","","","","","","","","","","","","","","","","","","","","","feedback_test"
"","","","","","psychophysics","395","478972","0.0-11.0-0.0-0.47","665","","f","","","","","","","","","","","","","key","f","16.666000000000487","720","446","f","true","img/S_ambi40.png","圆形","prac_simultaneous",""
"","","","","","html-keyboard-response","396","479274","0.0-11.0-0.0-1.47","null","<span style='color:GreenYellow; font-size: 70px;'>正确! </span>","null","","","","","","","","","","","","","","","","","","","","","","","feedback_test"
"","","","","","psychophysics","397","480933","0.0-11.0-0.0-0.48","555","","j","","","","","","","","","","","","","key","j","16.666000000000086","720","446","j","true","img/S_ambi40.png","方形","prac_simultaneous",""
"","","","","","html-keyboard-response","398","481238","0.0-11.0-0.0-1.48","null","<span style='color:GreenYellow; font-size: 70px;'>正确! </span>","null","","","","","","","","","","","","","","","","","","","","","","","feedback_test"
"","","","","","psychophysics","399","482910","0.0-11.0-0.0-0.49","570","","f","","","","","","","","","","","","","key","f","16.73997979798011","720","446","f","true","img/C_ambi40.png","方形","prac_simultaneous",""
"","","","","","html-keyboard-response","400","483215","0.0-11.0-0.0-1.49","null","<span style='color:GreenYellow; font-size: 70px;'>正确! </span>","null","","","","","","","","","","","","","","","","","","","","","","","feedback_test"
"","","","","","psychophysics","401","484894","0.0-11.0-0.0-0.50","576","","f","","","","","","","","","","","","","key","f","16.665999999999766","720","446","f","true","img/T_ambi40.png","方形","prac_simultaneous",""
"","","","","","html-keyboard-response","402","485200","0.0-11.0-0.0-1.50","null","<span style='color:GreenYellow; font-size: 70px;'>正确! </span>","null","","","","","","","","","","","","","","","","","","","","","","","feedback_test"
"","","","","","psychophysics","403","486824","0.0-11.0-0.0-0.51","523","","j","","","","","","","","","","","","","key","j","16.665999999999865","720","446","j","true","img/T_ambi40.png","三角","prac_simultaneous",""
"","","","","","html-keyboard-response","404","487130","0.0-11.0-0.0-1.51","null","<span style='color:GreenYellow; font-size: 70px;'>正确! </span>","null","","","","","","","","","","","","","","","","","","","","","","","feedback_test"
"","","","","","psychophysics","405","488760","0.0-11.0-0.0-0.52","529","","f","","","","","","","","","","","","","key","f","16.66600000000014","720","446","j","false","img/T_ambi40.png","三角","prac_simultaneous",""
"","","","","","html-keyboard-response","406","489064","0.0-11.0-0.0-1.52","null","<span style='color:red; font-size: 70px;'>错误! </span>","null","","","","","","","","","","","","","","","","","","","","","","","feedback_test"
"","","","","","psychophysics","407","490673","0.0-11.0-0.0-0.53","508","","j","","","","","","","","","","","","","key","j","16.665999999999865","720","446","f","false","img/T_ambi40.png","圆形","prac_simultaneous",""
"","","","","","html-keyboard-response","408","490975","0.0-11.0-0.0-1.53","null","<span style='color:red; font-size: 70px;'>错误! </span>","null","","","","","","","","","","","","","","","","","","","","","","","feedback_test"
"","","","","","psychophysics","409","492764","0.0-11.0-0.0-0.54","686","","f","","","","","","","","","","","","","key","f","16.666000000000185","720","446","f","true","img/S_ambi40.png","三角","prac_simultaneous",""
"","","","","","html-keyboard-response","410","493070","0.0-11.0-0.0-1.54","null","<span style='color:GreenYellow; font-size: 70px;'>正确! </span>","null","","","","","","","","","","","","","","","","","","","","","","","feedback_test"
"","","","","","psychophysics","411","494925","0.0-11.0-0.0-0.55","754","","j","","","","","","","","","","","","","key","j","16.666000000000086","720","446","j","true","img/C_ambi40.png","圆形","prac_simultaneous",""
"","","","","","html-keyboard-response","412","495231","0.0-11.0-0.0-1.55","null","<span style='color:GreenYellow; font-size: 70px;'>正确! </span>","null","","","","","","","","","","","","","","","","","","","","","","","feedback_test"
"","","","","","psychophysics","413","496972","0.0-11.0-0.0-0.56","639","","f","","","","","","","","","","","","","key","f","16.66600000000024","720","446","f","true","img/C_ambi40.png","三角","prac_simultaneous",""
"","","","","","html-keyboard-response","414","497273","0.0-11.0-0.0-1.56","null","<span style='color:GreenYellow; font-size: 70px;'>正确! </span>","null","","","","","","","","","","","","","","","","","","","","","","","feedback_test"
"","","","","","psychophysics","415","498996","0.0-11.0-0.0-0.57","622","","j","","","","","","","","","","","","","key","j","16.66600000000029","720","446","j","true","img/S_ambi40.png","方形","prac_simultaneous",""
"","","","","","html-keyboard-response","416","499301","0.0-11.0-0.0-1.57","null","<span style='color:GreenYellow; font-size: 70px;'>正确! </span>","null","","","","","","","","","","","","","","","","","","","","","","","feedback_test"
"","","","","","psychophysics","417","501065","0.0-11.0-0.0-0.58","663","","f","","","","","","","","","","","","","key","f","16.66600000000024","720","446","f","true","img/S_ambi40.png","圆形","prac_simultaneous",""
"","","","","","html-keyboard-response","418","501370","0.0-11.0-0.0-1.58","null","<span style='color:GreenYellow; font-size: 70px;'>正确! </span>","null","","","","","","","","","","","","","","","","","","","","","","","feedback_test"
"","","","","","psychophysics","419","503049","0.0-11.0-0.0-0.59","577","","j","","","","","","","","","","","","","key","j","16.614799999999814","720","446","j","true","img/C_ambi40.png","圆形","prac_simultaneous",""
"","","","","","html-keyboard-response","420","503355","0.0-11.0-0.0-1.59","null","<span style='color:GreenYellow; font-size: 70px;'>正确! </span>","null","","","","","","","","","","","","","","","","","","","","","","","feedback_test"
"","","","","","psychophysics","421","505075","0.0-11.0-0.0-0.60","615","","j","","","","","","","","","","","","","key","j","16.665999999999723","720","446","j","true","img/T_ambi40.png","三角","prac_simultaneous",""
"","","","","","html-keyboard-response","422","505381","0.0-11.0-0.0-1.60","null","<span style='color:GreenYellow; font-size: 70px;'>正确! </span>","null","","","","","","","","","","","","","","","","","","","","","","","feedback_test"
"","","","","","psychophysics","423","507032","0.0-11.0-0.0-0.61","549","","f","","","","","","","","","","","","","key","f","16.665999999999816","720","446","f","true","img/T_ambi40.png","方形","prac_simultaneous",""
"","","","","","html-keyboard-response","424","507337","0.0-11.0-0.0-1.61","null","<span style='color:GreenYellow; font-size: 70px;'>正确! </span>","null","","","","","","","","","","","","","","","","","","","","","","","feedback_test"
"","","","","","psychophysics","425","509036","0.0-11.0-0.0-0.62","597","","f","","","","","","","","","","","","","key","f","16.666000000000032","720","446","f","true","img/T_ambi40.png","圆形","prac_simultaneous",""
"","","","","","html-keyboard-response","426","509338","0.0-11.0-0.0-1.62","null","<span style='color:GreenYellow; font-size: 70px;'>正确! </span>","null","","","","","","","","","","","","","","","","","","","","","","","feedback_test"
"","","","","","psychophysics","427","511172","0.0-11.0-0.0-0.63","732","","j","","","","","","","","","","","","","key","j","16.66599999999984","720","446","j","true","img/C_ambi40.png","圆形","prac_simultaneous",""
"","","","","","html-keyboard-response","428","511476","0.0-11.0-0.0-1.63","null","<span style='color:GreenYellow; font-size: 70px;'>正确! </span>","null","","","","","","","","","","","","","","","","","","","","","","","feedback_test"
"","","","","","psychophysics","429","513198","0.0-11.0-0.0-0.64","620","","j","","","","","","","","","","","","","key","j","16.66600000000029","720","446","j","true","img/C_ambi40.png","圆形","prac_simultaneous",""
"","","","","","html-keyboard-response","430","513501","0.0-11.0-0.0-1.64","null","<span style='color:GreenYellow; font-size: 70px;'>正确! </span>","null","","","","","","","","","","","","","","","","","","","","","","","feedback_test"
"","","","","","psychophysics","431","515284","0.0-11.0-0.0-0.65","682","","f","","","","","","","","","","","","","key","f","16.666000000000185","720","446","f","true","img/S_ambi40.png","三角","prac_simultaneous",""
"","","","","","html-keyboard-response","432","515587","0.0-11.0-0.0-1.65","null","<span style='color:GreenYellow; font-size: 70px;'>正确! </span>","null","","","","","","","","","","","","","","","","","","","","","","","feedback_test"
"","","","","","psychophysics","433","517333","0.0-11.0-0.0-0.66","643","","j","","","","","","","","","","","","","key","j","16.665999999999677","720","446","j","true","img/S_ambi40.png","方形","prac_simultaneous",""
"","","","","","html-keyboard-response","434","517635","0.0-11.0-0.0-1.66","null","<span style='color:GreenYellow; font-size: 70px;'>正确! </span>","null","","","","","","","","","","","","","","","","","","","","","","","feedback_test"
"","","","","","psychophysics","435","519289","0.0-11.0-0.0-0.67","552","","f","","","","","","","","","","","","","key","f","16.665999999999816","720","446","f","true","img/C_ambi40.png","三角","prac_simultaneous",""
"","","","","","html-keyboard-response","436","519590","0.0-11.0-0.0-1.67","null","<span style='color:GreenYellow; font-size: 70px;'>正确! </span>","null","","","","","","","","","","","","","","","","","","","","","","","feedback_test"
"","","","","","psychophysics","437","521451","0.0-11.0-0.0-0.68","757","","j","","","","","","","","","","","","","key","j","16.666000000000324","720","446","j","true","img/T_ambi40.png","三角","prac_simultaneous",""
"","","","","","html-keyboard-response","438","521756","0.0-11.0-0.0-1.68","null","<span style='color:GreenYellow; font-size: 70px;'>正确! </span>","null","","","","","","","","","","","","","","","","","","","","","","","feedback_test"
"","","","","","psychophysics","439","523413","0.0-11.0-0.0-0.69","555","","f","","","","","","","","","","","","","key","f","16.603393939394277","720","446","f","true","img/C_ambi40.png","方形","prac_simultaneous",""
"","","","","","html-keyboard-response","440","523718","0.0-11.0-0.0-1.69","null","<span style='color:GreenYellow; font-size: 70px;'>正确! </span>","null","","","","","","","","","","","","","","","","","","","","","","","feedback_test"
"","","","","","psychophysics","441","525434","0.0-11.0-0.0-0.70","612","","f","","","","","","","","","","","","","key","f","16.66600000000029","720","446","f","true","img/S_ambi40.png","圆形","prac_simultaneous",""
