"success","timeout","failed_images","failed_audio","failed_video","trial_type","trial_index","time_elapsed","internal_node_id","rt","stimulus","response","value","item_width_mm","item_height_mm","item_width_px","px2mm","view_dist_mm","item_width_deg","px2deg","scale_factor","win_width_deg","win_height_deg","view_history","response_type","key_press","avg_frame_time","center_x","center_y","correct_response","correct","Image","word","condition","screen_id"
"true","false","[]","[]","[]","preload","0","51","0.0-0.0","","","","","","","","","","","","","","","","","","","","","","","","","",""
"","","","","","html-keyboard-response","1","996","0.0-1.0","944","
   <p>您好，欢迎参加本次实验。</p>
   <p>为充分保障您的权利，请确保您已经知晓并同意《参与实验同意书》以及《数据公开知情同意书》。</p>
   <p>如果您未见过上述内容，请咨询实验员。</p>
   <p>如果您选择继续实验，则表示您已经清楚两份知情同意书的内容并同意。</p>
   <p> <div style = ""color: green""><按任意键至下页></div> </p>
   ","f","","","","","","","","","","","","","","","","","","","","","","",""
"","","","","","html-keyboard-response","2","1375","0.0-2.0","379","
   <p>本实验首先需要您填写一些基本个人信息。</p>
   <p> <div style = ""color: green""><按任意键至下页></div></p>
   ","f","","","","","","","","","","","","","","","","","","","","","","",""
"","","","","","call-function","3","1376","0.0-3.0-0.0","","","","","","","","","","","","","","","","","","","","","","","","","",""
"","","","","","survey-html-form","4","6369","0.0-3.0-1.0","4993","","{""Q0"":""002""}","","","","","","","","","","","","","","","","","","","","","","",""
"","","","","","html-button-response","5","7314","0.0-3.0-2.0","943","<p style = 'color : white'>您的性别</p>","0","","","","","","","","","","","","","","","","","","","","","","",""
"","","","","","survey-html-form","6","11195","0.0-3.0-3.0","3880","","{""Q0"":""1900""}","","","","","","","","","","","","","","","","","","","","","","",""
"","","","","","survey-html-form","7","12320","0.0-3.0-4.0","1123","","{""Q0"":""5""}","","","","","","","","","","","","","","","","","","","","","","",""
"","","","","","virtual-chinrest","8","38576","0.0-4.0","26253","","","","85.6","53.98","429.5878068172158","5.023326528228771","569.77","8.591756136344316","50","1.017254198245757","28.8","15.28","","","","","","","","","","","",""
"true","","","","","fullscreen","9","70919","0.0-5.0","","","","","","","","","","","","","","","","","","","","","","","","","",""
"","","","","","instructions","10","139665","0.0-6.0","68746","","","","","","","","","","","","","","[{""page_index"":0,""viewing_time"":1168},{""page_index"":1,""viewing_time"":9125},{""page_index"":2,""viewing_time"":35469},{""page_index"":3,""viewing_time"":22984}]","","","","","","","","","","",""
"","","","","","psychophysics","11","141740","0.0-7.0-0.0-0.0","924","","f","","","","","","","","","","","","","key","f","16.666000000000043","720","446","j","false","img/C_ambi40.png","三角","prac_image_first",""
"","","","","","html-keyboard-response","12","142041","0.0-7.0-0.0-1.0","null","<span style='color:red; font-size: 70px;'>错误! </span>","null","","","","","","","","","","","","","","","","","","","","","","","feedback_test"
"","","","","","psychophysics","13","143940","0.0-7.0-0.0-0.1","746","","j","","","","","","","","","","","","","key","j","16.666000000000015","720","446","j","true","img/S_ambi40.png","圆形","prac_image_first",""
"","","","","","html-keyboard-response","14","144241","0.0-7.0-0.0-1.1","null","<span style='color:GreenYellow; font-size: 70px;'>正确! </span>","null","","","","","","","","","","","","","","","","","","","","","","","feedback_test"
"","","","","","psychophysics","15","146032","0.0-7.0-0.0-0.2","639","","f","","","","","","","","","","","","","key","f","16.665999999999887","720","446","f","true","img/S_ambi40.png","方形","prac_image_first",""
"","","","","","html-keyboard-response","16","146337","0.0-7.0-0.0-1.2","null","<span style='color:GreenYellow; font-size: 70px;'>正确! </span>","null","","","","","","","","","","","","","","","","","","","","","","","feedback_test"
"","","","","","psychophysics","17","148060","0.0-7.0-0.0-0.3","571","","f","","","","","","","","","","","","","key","f","16.666000000000007","720","446","j","false","img/C_ambi40.png","方形","prac_image_first",""
"","","","","","html-keyboard-response","18","148365","0.0-7.0-0.0-1.3","null","<span style='color:red; font-size: 70px;'>错误! </span>","null","","","","","","","","","","","","","","","","","","","","","","","feedback_test"
"","","","","","psychophysics","19","150238","0.0-7.0-0.0-0.4","722","","j","","","","","","","","","","","","","key","j","16.66600000000006","720","446","j","true","img/T_ambi40.png","圆形","prac_image_first",""
"","","","","","html-keyboard-response","20","150542","0.0-7.0-0.0-1.4","null","<span style='color:GreenYellow; font-size: 70px;'>正确! </span>","null","","","","","","","","","","","","","","","","","","","","","","","feedback_test"
"","","","","","psychophysics","21","152196","0.0-7.0-0.0-0.5","502","","f","","","","","","","","","","","","","key","f","16.666000000000086","720","446","f","true","img/S_ambi40.png","方形","prac_image_first",""
"","","","","","html-keyboard-response","22","152497","0.0-7.0-0.0-1.5","null","<span style='color:GreenYellow; font-size: 70px;'>正确! </span>","null","","","","","","","","","","","","","","","","","","","","","","","feedback_test"
"","","","","","psychophysics","23","154625","0.0-7.0-0.0-0.6","978","","f","","","","","","","","","","","","","key","f","16.66599999999998","720","446","f","true","img/C_ambi40.png","圆形","prac_image_first",""
"","","","","","html-keyboard-response","24","154927","0.0-7.0-0.0-1.6","null","<span style='color:GreenYellow; font-size: 70px;'>正确! </span>","null","","","","","","","","","","","","","","","","","","","","","","","feedback_test"
"","","","","","psychophysics","25","156650","0.0-7.0-0.0-0.7","572","","f","","","","","","","","","","","","","key","f","16.666000000000007","720","446","f","true","img/T_ambi40.png","三角","prac_image_first",""
"","","","","","html-keyboard-response","26","156951","0.0-7.0-0.0-1.7","null","<span style='color:GreenYellow; font-size: 70px;'>正确! </span>","null","","","","","","","","","","","","","","","","","","","","","","","feedback_test"
"","","","","","psychophysics","27","158698","0.0-7.0-0.0-0.8","596","","f","","","","","","","","","","","","","key","f","16.665999999999958","720","446","f","true","img/C_ambi40.png","圆形","prac_image_first",""
"","","","","","html-keyboard-response","28","159000","0.0-7.0-0.0-1.8","null","<span style='color:GreenYellow; font-size: 70px;'>正确! </span>","null","","","","","","","","","","","","","","","","","","","","","","","feedback_test"
"","","","","","psychophysics","29","161105","0.0-7.0-0.0-0.9","954","","j","","","","","","","","","","","","","key","j","16.67019200000004","720","446","j","true","img/T_ambi40.png","方形","prac_image_first",""
"","","","","","html-keyboard-response","30","161410","0.0-7.0-0.0-1.9","null","<span style='color:GreenYellow; font-size: 70px;'>正确! </span>","null","","","","","","","","","","","","","","","","","","","","","","","feedback_test"
"","","","","","psychophysics","31","163828","0.0-7.0-0.0-0.10","1267","","j","","","","","","","","","","","","","key","j","16.666000000000068","720","446","f","false","img/T_ambi40.png","三角","prac_image_first",""
"","","","","","html-keyboard-response","32","164131","0.0-7.0-0.0-1.10","null","<span style='color:red; font-size: 70px;'>错误! </span>","null","","","","","","","","","","","","","","","","","","","","","","","feedback_test"
"","","","","","psychophysics","33","166504","0.0-7.0-0.0-0.11","1222","","j","","","","","","","","","","","","","key","j","16.665999999999915","720","446","j","true","img/S_ambi40.png","三角","prac_image_first",""
"","","","","","html-keyboard-response","34","166807","0.0-7.0-0.0-1.11","null","<span style='color:GreenYellow; font-size: 70px;'>正确! </span>","null","","","","","","","","","","","","","","","","","","","","","","","feedback_test"
"","","","","","psychophysics","35","168666","0.0-7.0-0.0-0.12","706","","j","","","","","","","","","","","","","key","j","16.66600000000006","720","446","j","true","img/T_ambi40.png","圆形","prac_image_first",""
"","","","","","html-keyboard-response","36","168971","0.0-7.0-0.0-1.12","null","<span style='color:GreenYellow; font-size: 70px;'>正确! </span>","null","","","","","","","","","","","","","","","","","","","","","","","feedback_test"
"","","","","","psychophysics","37","170937","0.0-7.0-0.0-0.13","815","","f","","","","","","","","","","","","","key","f","16.666000000000174","720","446","f","true","img/C_ambi40.png","圆形","prac_image_first",""
"","","","","","html-keyboard-response","38","171239","0.0-7.0-0.0-1.13","null","<span style='color:GreenYellow; font-size: 70px;'>正确! </span>","null","","","","","","","","","","","","","","","","","","","","","","","feedback_test"
"","","","","","psychophysics","39","173074","0.0-7.0-0.0-0.14","684","","j","","","","","","","","","","","","","key","j","16.66600000000011","720","446","j","true","img/S_ambi40.png","三角","prac_image_first",""
"","","","","","html-keyboard-response","40","173376","0.0-7.0-0.0-1.14","null","<span style='color:GreenYellow; font-size: 70px;'>正确! </span>","null","","","","","","","","","","","","","","","","","","","","","","","feedback_test"
"","","","","","psychophysics","41","175303","0.0-7.0-0.0-0.15","776","","j","","","","","","","","","","","","","key","j","16.665999999999993","720","446","f","false","img/T_ambi40.png","三角","prac_image_first",""
"","","","","","html-keyboard-response","42","175605","0.0-7.0-0.0-1.15","null","<span style='color:red; font-size: 70px;'>错误! </span>","null","","","","","","","","","","","","","","","","","","","","","","","feedback_test"
"","","","","","psychophysics","43","178047","0.0-7.0-0.0-0.16","1290","","j","","","","","","","","","","","","","key","j","16.66600000000003","720","446","j","true","img/S_ambi40.png","圆形","prac_image_first",""
"","","","","","html-keyboard-response","44","178351","0.0-7.0-0.0-1.16","null","<span style='color:GreenYellow; font-size: 70px;'>正确! </span>","null","","","","","","","","","","","","","","","","","","","","","","","feedback_test"
"","","","","","psychophysics","45","180479","0.0-7.0-0.0-0.17","977","","f","","","","","","","","","","","","","key","f","16.670125984251968","720","446","f","true","img/C_ambi40.png","圆形","prac_image_first",""
"","","","","","html-keyboard-response","46","180781","0.0-7.0-0.0-1.17","null","<span style='color:GreenYellow; font-size: 70px;'>正确! </span>","null","","","","","","","","","","","","","","","","","","","","","","","feedback_test"
"","","","","","psychophysics","47","182571","0.0-7.0-0.0-0.18","640","","f","","","","","","","","","","","","","key","f","16.66599999999991","720","446","f","true","img/S_ambi40.png","方形","prac_image_first",""
"","","","","","html-keyboard-response","48","182877","0.0-7.0-0.0-1.18","null","<span style='color:GreenYellow; font-size: 70px;'>正确! </span>","null","","","","","","","","","","","","","","","","","","","","","","","feedback_test"
"","","","","","psychophysics","49","184617","0.0-7.0-0.0-0.19","590","","j","","","","","","","","","","","","","key","j","16.665999999999983","720","446","j","true","img/C_ambi40.png","三角","prac_image_first",""
"","","","","","html-keyboard-response","50","184920","0.0-7.0-0.0-1.19","null","<span style='color:GreenYellow; font-size: 70px;'>正确! </span>","null","","","","","","","","","","","","","","","","","","","","","","","feedback_test"
"","","","","","psychophysics","51","187364","0.0-7.0-0.0-0.20","1293","","f","","","","","","","","","","","","","key","f","16.66600000000003","720","446","f","true","img/T_ambi40.png","三角","prac_image_first",""
"","","","","","html-keyboard-response","52","187668","0.0-7.0-0.0-1.20","null","<span style='color:GreenYellow; font-size: 70px;'>正确! </span>","null","","","","","","","","","","","","","","","","","","","","","","","feedback_test"
"","","","","","psychophysics","53","189321","0.0-7.0-0.0-0.21","500","","j","","","","","","","","","","","","","key","j","16.66600000000011","720","446","j","true","img/T_ambi40.png","方形","prac_image_first",""
"","","","","","html-keyboard-response","54","189623","0.0-7.0-0.0-1.21","null","<span style='color:GreenYellow; font-size: 70px;'>正确! </span>","null","","","","","","","","","","","","","","","","","","","","","","","feedback_test"
"","","","","","psychophysics","55","191344","0.0-7.0-0.0-0.22","569","","f","","","","","","","","","","","","","key","f","16.668543689320536","720","446","f","true","img/S_ambi40.png","方形","prac_image_first",""
"","","","","","html-keyboard-response","56","191648","0.0-7.0-0.0-1.22","null","<span style='color:GreenYellow; font-size: 70px;'>正确! </span>","null","","","","","","","","","","","","","","","","","","","","","","","feedback_test"
"","","","","","psychophysics","57","193347","0.0-7.0-0.0-0.23","548","","j","","","","","","","","","","","","","key","j","16.666000000000032","720","446","j","true","img/C_ambi40.png","方形","prac_image_first",""
"","","","","","html-keyboard-response","58","193650","0.0-7.0-0.0-1.23","null","<span style='color:GreenYellow; font-size: 70px;'>正确! </span>","null","","","","","","","","","","","","","","","","","","","","","","","feedback_test"
"","","","","","psychophysics","59","195394","0.0-7.0-0.0-0.24","593","","j","","","","","","","","","","","","","key","j","16.665999999999958","720","446","j","true","img/T_ambi40.png","方形","prac_image_first",""
"","","","","","html-keyboard-response","60","195696","0.0-7.0-0.0-1.24","null","<span style='color:GreenYellow; font-size: 70px;'>正确! </span>","null","","","","","","","","","","","","","","","","","","","","","","","feedback_test"
"","","","","","psychophysics","61","197577","0.0-7.0-0.0-0.25","731","","f","","","","","","","","","","","","","key","f","16.666000000000036","720","446","f","true","img/T_ambi40.png","三角","prac_image_first",""
"","","","","","html-keyboard-response","62","197881","0.0-7.0-0.0-1.25","null","<span style='color:GreenYellow; font-size: 70px;'>正确! </span>","null","","","","","","","","","","","","","","","","","","","","","","","feedback_test"
"","","","","","psychophysics","63","199716","0.0-7.0-0.0-0.26","683","","f","","","","","","","","","","","","","key","f","16.66600000000011","720","446","f","true","img/S_ambi40.png","方形","prac_image_first",""
"","","","","","html-keyboard-response","64","200020","0.0-7.0-0.0-1.26","null","<span style='color:GreenYellow; font-size: 70px;'>正确! </span>","null","","","","","","","","","","","","","","","","","","","","","","","feedback_test"
"","","","","","psychophysics","65","201807","0.0-7.0-0.0-0.27","636","","j","","","","","","","","","","","","","key","j","16.66599999999991","720","446","j","true","img/C_ambi40.png","三角","prac_image_first",""
"","","","","","html-keyboard-response","66","202111","0.0-7.0-0.0-1.27","null","<span style='color:GreenYellow; font-size: 70px;'>正确! </span>","null","","","","","","","","","","","","","","","","","","","","","","","feedback_test"
"","","","","","psychophysics","67","203742","0.0-7.0-0.0-0.28","481","","f","","","","","","","","","","","","","key","f","16.66599999999984","720","446","f","true","img/C_ambi40.png","圆形","prac_image_first",""
"","","","","","html-keyboard-response","68","204044","0.0-7.0-0.0-1.28","null","<span style='color:GreenYellow; font-size: 70px;'>正确! </span>","null","","","","","","","","","","","","","","","","","","","","","","","feedback_test"
"","","","","","psychophysics","69","205767","0.0-7.0-0.0-0.29","572","","j","","","","","","","","","","","","","key","j","16.666000000000007","720","446","j","true","img/C_ambi40.png","方形","prac_image_first",""
"","","","","","html-keyboard-response","70","206071","0.0-7.0-0.0-1.29","null","<span style='color:GreenYellow; font-size: 70px;'>正确! </span>","null","","","","","","","","","","","","","","","","","","","","","","","feedback_test"
"","","","","","psychophysics","71","207771","0.0-7.0-0.0-0.30","549","","j","","","","","","","","","","","","","key","j","16.666000000000032","720","446","j","true","img/S_ambi40.png","圆形","prac_image_first",""
"","","","","","html-keyboard-response","72","208074","0.0-7.0-0.0-1.30","null","<span style='color:GreenYellow; font-size: 70px;'>正确! </span>","null","","","","","","","","","","","","","","","","","","","","","","","feedback_test"
"","","","","","psychophysics","73","209885","0.0-7.0-0.0-0.31","660","","j","","","","","","","","","","","","","key","j","16.670897196261613","720","446","j","true","img/T_ambi40.png","圆形","prac_image_first",""
"","","","","","html-keyboard-response","74","210187","0.0-7.0-0.0-1.31","null","<span style='color:GreenYellow; font-size: 70px;'>正确! </span>","null","","","","","","","","","","","","","","","","","","","","","","","feedback_test"
"","","","","","psychophysics","75","212021","0.0-7.0-0.0-0.32","680","","j","","","","","","","","","","","","","key","j","16.66600000000011","720","446","f","false","img/S_ambi40.png","方形","prac_image_first",""
"","","","","","html-keyboard-response","76","212323","0.0-7.0-0.0-1.32","null","<span style='color:red; font-size: 70px;'>错误! </span>","null","","","","","","","","","","","","","","","","","","","","","","","feedback_test"
"","","","","","psychophysics","77","214027","0.0-7.0-0.0-0.33","551","","f","","","","","","","","","","","","","key","f","16.666000000000007","720","446","f","true","img/C_ambi40.png","圆形","prac_image_first",""
"","","","","","html-keyboard-response","78","214330","0.0-7.0-0.0-1.33","null","<span style='color:GreenYellow; font-size: 70px;'>正确! </span>","null","","","","","","","","","","","","","","","","","","","","","","","feedback_test"
"","","","","","psychophysics","79","216184","0.0-7.0-0.0-0.34","703","","f","","","","","","","","","","","","","key","f","16.666000000000086","720","446","f","true","img/T_ambi40.png","三角","prac_image_first",""
"","","","","","html-keyboard-response","80","216488","0.0-7.0-0.0-1.34","null","<span style='color:GreenYellow; font-size: 70px;'>正确! </span>","null","","","","","","","","","","","","","","","","","","","","","","","feedback_test"
"","","","","","psychophysics","81","218051","0.0-7.0-0.0-0.35","413","","j","","","","","","","","","","","","","key","j","16.665999999999944","720","446","j","true","img/S_ambi40.png","三角","prac_image_first",""
"","","","","","html-keyboard-response","82","218352","0.0-7.0-0.0-1.35","null","<span style='color:GreenYellow; font-size: 70px;'>正确! </span>","null","","","","","","","","","","","","","","","","","","","","","","","feedback_test"
"","","","","","psychophysics","83","220301","0.0-7.0-0.0-0.36","797","","f","","","","","","","","","","","","","key","f","16.665999999999947","720","446","f","true","img/T_ambi40.png","三角","prac_image_first",""
"","","","","","html-keyboard-response","84","220601","0.0-7.0-0.0-1.36","null","<span style='color:GreenYellow; font-size: 70px;'>正确! </span>","null","","","","","","","","","","","","","","","","","","","","","","","feedback_test"
"","","","","","psychophysics","85","222236","0.0-7.0-0.0-0.37","482","","j","","","","","","","","","","","","","key","j","16.66600000000014","720","446","j","true","img/T_ambi40.png","方形","prac_image_first",""
"","","","","","html-keyboard-response","86","222537","0.0-7.0-0.0-1.37","null","<span style='color:GreenYellow; font-size: 70px;'>正确! </span>","null","","","","","","","","","","","","","","","","","","","","","","","feedback_test"
"","","","","","psychophysics","87","224215","0.0-7.0-0.0-0.38","527","","f","","","","","","","","","","","","","key","f","16.666000000000057","720","446","f","true","img/C_ambi40.png","圆形","prac_image_first",""
"","","","","","html-keyboard-response","88","224518","0.0-7.0-0.0-1.38","null","<span style='color:GreenYellow; font-size: 70px;'>正确! </span>","null","","","","","","","","","","","","","","","","","","","","","","","feedback_test"
"","","","","","psychophysics","89","226197","0.0-7.0-0.0-0.39","527","","j","","","","","","","","","","","","","key","j","16.666000000000057","720","446","j","true","img/C_ambi40.png","方形","prac_image_first",""
"","","","","","html-keyboard-response","90","226499","0.0-7.0-0.0-1.39","null","<span style='color:GreenYellow; font-size: 70px;'>正确! </span>","null","","","","","","","","","","","","","","","","","","","","","","","feedback_test"
"","","","","","psychophysics","91","228355","0.0-7.0-0.0-0.40","706","","f","","","","","","","","","","","","","key","f","16.666000000000086","720","446","f","true","img/S_ambi40.png","方形","prac_image_first",""
"","","","","","html-keyboard-response","92","228659","0.0-7.0-0.0-1.40","null","<span style='color:GreenYellow; font-size: 70px;'>正确! </span>","null","","","","","","","","","","","","","","","","","","","","","","","feedback_test"
"","","","","","psychophysics","93","230337","0.0-7.0-0.0-0.41","527","","f","","","","","","","","","","","","","key","f","16.67129292929277","720","446","f","true","img/S_ambi40.png","方形","prac_image_first",""
"","","","","","html-keyboard-response","94","230638","0.0-7.0-0.0-1.41","null","<span style='color:GreenYellow; font-size: 70px;'>正确! </span>","null","","","","","","","","","","","","","","","","","","","","","","","feedback_test"
"","","","","","psychophysics","95","232293","0.0-7.0-0.0-0.42","504","","j","","","","","","","","","","","","","key","j","16.666000000000086","720","446","j","true","img/C_ambi40.png","三角","prac_image_first",""
"","","","","","html-keyboard-response","96","232594","0.0-7.0-0.0-1.42","null","<span style='color:GreenYellow; font-size: 70px;'>正确! </span>","null","","","","","","","","","","","","","","","","","","","","","","","feedback_test"
"","","","","","psychophysics","97","234183","0.0-7.0-0.0-0.43","439","","f","","","","","","","","","","","","","key","f","16.666000000000224","720","446","f","true","img/T_ambi40.png","三角","prac_image_first",""
"","","","","","html-keyboard-response","98","234484","0.0-7.0-0.0-1.43","null","<span style='color:GreenYellow; font-size: 70px;'>正确! </span>","null","","","","","","","","","","","","","","","","","","","","","","","feedback_test"
"","","","","","psychophysics","99","236074","0.0-7.0-0.0-0.44","439","","j","","","","","","","","","","","","","key","j","16.665999999999915","720","446","j","true","img/T_ambi40.png","圆形","prac_image_first",""
"","","","","","html-keyboard-response","100","236376","0.0-7.0-0.0-1.44","null","<span style='color:GreenYellow; font-size: 70px;'>正确! </span>","null","","","","","","","","","","","","","","","","","","","","","","","feedback_test"
"","","","","","psychophysics","101","238031","0.0-7.0-0.0-0.45","504","","j","","","","","","","","","","","","","key","j","16.66600000000011","720","446","j","true","img/S_ambi40.png","三角","prac_image_first",""
"","","","","","html-keyboard-response","102","238334","0.0-7.0-0.0-1.45","null","<span style='color:GreenYellow; font-size: 70px;'>正确! </span>","null","","","","","","","","","","","","","","","","","","","","","","","feedback_test"
"","","","","","psychophysics","103","240280","0.0-7.0-0.0-0.46","795","","f","","","","","","","","","","","","","key","f","16.665999999999947","720","446","f","true","img/C_ambi40.png","圆形","prac_image_first",""
"","","","","","html-keyboard-response","104","240585","0.0-7.0-0.0-1.46","null","<span style='color:GreenYellow; font-size: 70px;'>正确! </span>","null","","","","","","","","","","","","","","","","","","","","","","","feedback_test"
"","","","","","psychophysics","105","242216","0.0-7.0-0.0-0.47","478","","j","","","","","","","","","","","","","key","j","16.66600000000014","720","446","j","true","img/S_ambi40.png","圆形","prac_image_first",""
"","","","","","html-keyboard-response","106","242518","0.0-7.0-0.0-1.47","null","<span style='color:GreenYellow; font-size: 70px;'>正确! </span>","null","","","","","","","","","","","","","","","","","","","","","","","feedback_test"
"","","","","","psychophysics","107","244331","0.0-7.0-0.0-0.48","659","","f","","","","","","","","","","","","","key","f","16.665999999999865","720","446","f","true","img/C_ambi40.png","圆形","prac_image_first",""
"","","","","","html-keyboard-response","108","244634","0.0-7.0-0.0-1.48","null","<span style='color:GreenYellow; font-size: 70px;'>正确! </span>","null","","","","","","","","","","","","","","","","","","","","","","","feedback_test"
"","","","","","psychophysics","109","246332","0.0-7.0-0.0-0.49","546","","j","","","","","","","","","","","","","key","j","16.666000000000032","720","446","j","true","img/T_ambi40.png","圆形","prac_image_first",""
"","","","","","html-keyboard-response","110","246637","0.0-7.0-0.0-1.49","null","<span style='color:GreenYellow; font-size: 70px;'>正确! </span>","null","","","","","","","","","","","","","","","","","","","","","","","feedback_test"
"","","","","","psychophysics","111","248493","0.0-7.0-0.0-0.50","705","","f","","","","","","","","","","","","","key","f","16.66600000000006","720","446","f","true","img/S_ambi40.png","方形","prac_image_first",""
"","","","","","html-keyboard-response","112","248795","0.0-7.0-0.0-1.50","null","<span style='color:GreenYellow; font-size: 70px;'>正确! </span>","null","","","","","","","","","","","","","","","","","","","","","","","feedback_test"
"","","","","","psychophysics","113","250429","0.0-7.0-0.0-0.51","483","","j","","","","","","","","","","","","","key","j","16.67139175257732","720","446","j","true","img/S_ambi40.png","三角","prac_image_first",""
"","","","","","html-keyboard-response","114","250729","0.0-7.0-0.0-1.51","null","<span style='color:GreenYellow; font-size: 70px;'>正确! </span>","null","","","","","","","","","","","","","","","","","","","","","","","feedback_test"
"","","","","","psychophysics","115","252588","0.0-7.0-0.0-0.52","708","","j","","","","","","","","","","","","","key","j","16.666000000000086","720","446","j","true","img/C_ambi40.png","方形","prac_image_first",""
"","","","","","html-keyboard-response","116","252893","0.0-7.0-0.0-1.52","null","<span style='color:GreenYellow; font-size: 70px;'>正确! </span>","null","","","","","","","","","","","","","","","","","","","","","","","feedback_test"
"","","","","","psychophysics","117","254592","0.0-7.0-0.0-0.53","548","","j","","","","","","","","","","","","","key","j","16.666000000000032","720","446","j","true","img/C_ambi40.png","三角","prac_image_first",""
"","","","","","html-keyboard-response","118","254893","0.0-7.0-0.0-1.53","null","<span style='color:GreenYellow; font-size: 70px;'>正确! </span>","null","","","","","","","","","","","","","","","","","","","","","","","feedback_test"
"","","","","","psychophysics","119","256527","0.0-7.0-0.0-0.54","483","","f","","","","","","","","","","","","","key","f","16.66600000000014","720","446","f","true","img/T_ambi40.png","三角","prac_image_first",""
"","","","","","html-keyboard-response","120","256828","0.0-7.0-0.0-1.54","null","<span style='color:GreenYellow; font-size: 70px;'>正确! </span>","null","","","","","","","","","","","","","","","","","","","","","","","feedback_test"
"","","","","","psychophysics","121","258437","0.0-7.0-0.0-0.55","459","","j","","","","","","","","","","","","","key","j","16.66599999999989","720","446","j","true","img/T_ambi40.png","方形","prac_image_first",""
"","","","","","html-keyboard-response","122","258739","0.0-7.0-0.0-1.55","null","<span style='color:GreenYellow; font-size: 70px;'>正确! </span>","null","","","","","","","","","","","","","","","","","","","","","","","feedback_test"
"","","","","","psychophysics","123","260373","0.0-7.0-0.0-0.56","482","","f","","","","","","","","","","","","","key","f","16.66599999999984","720","446","f","true","img/C_ambi40.png","圆形","prac_image_first",""
"","","","","","html-keyboard-response","124","260678","0.0-7.0-0.0-1.56","null","<span style='color:GreenYellow; font-size: 70px;'>正确! </span>","null","","","","","","","","","","","","","","","","","","","","","","","feedback_test"
"","","","","","psychophysics","125","262329","0.0-7.0-0.0-0.57","501","","f","","","","","","","","","","","","","key","f","16.665999999999816","720","446","f","true","img/T_ambi40.png","三角","prac_image_first",""
"","","","","","html-keyboard-response","126","262634","0.0-7.0-0.0-1.57","null","<span style='color:GreenYellow; font-size: 70px;'>正确! </span>","null","","","","","","","","","","","","","","","","","","","","","","","feedback_test"
"","","","","","psychophysics","127","264198","0.0-7.0-0.0-0.58","413","","j","","","","","","","","","","","","","key","j","16.66599999999963","720","446","f","false","img/S_ambi40.png","方形","prac_image_first",""
"","","","","","html-keyboard-response","128","264499","0.0-7.0-0.0-1.58","null","<span style='color:red; font-size: 70px;'>错误! </span>","null","","","","","","","","","","","","","","","","","","","","","","","feedback_test"
"","","","","","psychophysics","129","266246","0.0-7.0-0.0-0.59","597","","j","","","","","","","","","","","","","key","j","16.665999999999677","720","446","j","true","img/S_ambi40.png","圆形","prac_image_first",""
"","","","","","html-keyboard-response","130","266547","0.0-7.0-0.0-1.59","null","<span style='color:GreenYellow; font-size: 70px;'>正确! </span>","null","","","","","","","","","","","","","","","","","","","","","","","feedback_test"
"","","","","","psychophysics","131","268518","0.0-7.0-0.0-0.60","816","","f","","","","","","","","","","","","","key","f","16.666000000000174","720","446","f","true","img/C_ambi40.png","圆形","prac_image_first",""
"","","","","","html-keyboard-response","132","268821","0.0-7.0-0.0-1.60","null","<span style='color:GreenYellow; font-size: 70px;'>正确! </span>","null","","","","","","","","","","","","","","","","","","","","","","","feedback_test"
"","","","","","psychophysics","133","270499","0.0-7.0-0.0-0.61","528","","j","","","","","","","","","","","","","key","j","16.671240000000108","720","446","j","true","img/C_ambi40.png","三角","prac_image_first",""
"","","","","","html-keyboard-response","134","270801","0.0-7.0-0.0-1.61","null","<span style='color:GreenYellow; font-size: 70px;'>正确! </span>","null","","","","","","","","","","","","","","","","","","","","","","","feedback_test"
"","","","","","psychophysics","135","272477","0.0-7.0-0.0-0.62","526","","j","","","","","","","","","","","","","key","j","16.665999999999766","720","446","f","false","img/S_ambi40.png","方形","prac_image_first",""
"","","","","","html-keyboard-response","136","272780","0.0-7.0-0.0-1.62","null","<span style='color:red; font-size: 70px;'>错误! </span>","null","","","","","","","","","","","","","","","","","","","","","","","feedback_test"
"","","","","","psychophysics","137","274412","0.0-7.0-0.0-0.63","481","","j","","","","","","","","","","","","","key","j","16.66600000000014","720","446","j","true","img/T_ambi40.png","方形","prac_image_first",""
"","","","","","html-keyboard-response","138","274713","0.0-7.0-0.0-1.63","null","<span style='color:GreenYellow; font-size: 70px;'>正确! </span>","null","","","","","","","","","","","","","","","","","","","","","","","feedback_test"
"","","","","","psychophysics","139","276550","0.0-7.0-0.0-0.64","687","","f","","","","","","","","","","","","","key","f","16.666000000000377","720","446","f","true","img/S_ambi40.png","方形","prac_image_first",""
"","","","","","html-keyboard-response","140","276851","0.0-7.0-0.0-1.64","null","<span style='color:GreenYellow; font-size: 70px;'>正确! </span>","null","","","","","","","","","","","","","","","","","","","","","","","feedback_test"
"","","","","","psychophysics","141","278530","0.0-7.0-0.0-0.65","527","","f","","","","","","","","","","","","","key","f","16.665999999999766","720","446","f","true","img/T_ambi40.png","三角","prac_image_first",""
"","","","","","html-keyboard-response","142","278834","0.0-7.0-0.0-1.65","null","<span style='color:GreenYellow; font-size: 70px;'>正确! </span>","null","","","","","","","","","","","","","","","","","","","","","","","feedback_test"
"","","","","","psychophysics","143","280554","0.0-7.0-0.0-0.66","570","","j","","","","","","","","","","","","","key","j","16.665999999999723","720","446","j","true","img/S_ambi40.png","圆形","prac_image_first",""
"","","","","","html-keyboard-response","144","280858","0.0-7.0-0.0-1.66","null","<span style='color:GreenYellow; font-size: 70px;'>正确! </span>","null","","","","","","","","","","","","","","","","","","","","","","","feedback_test"
"","","","","","psychophysics","145","282513","0.0-7.0-0.0-0.67","504","","j","","","","","","","","","","","","","key","j","16.66600000000041","720","446","j","true","img/T_ambi40.png","圆形","prac_image_first",""
"","","","","","html-keyboard-response","146","282813","0.0-7.0-0.0-1.67","null","<span style='color:GreenYellow; font-size: 70px;'>正确! </span>","null","","","","","","","","","","","","","","","","","","","","","","","feedback_test"
"","","","","","psychophysics","147","284514","0.0-7.0-0.0-0.68","550","","j","","","","","","","","","","","","","key","j","16.666000000000032","720","446","j","true","img/C_ambi40.png","方形","prac_image_first",""
"","","","","","html-keyboard-response","148","284815","0.0-7.0-0.0-1.68","null","<span style='color:GreenYellow; font-size: 70px;'>正确! </span>","null","","","","","","","","","","","","","","","","","","","","","","","feedback_test"
"","","","","","psychophysics","149","286494","0.0-7.0-0.0-0.69","529","","f","","","","","","","","","","","","","key","f","16.66600000000035","720","446","j","false","img/S_ambi40.png","三角","prac_image_first",""
"","","","","","html-keyboard-response","150","286795","0.0-7.0-0.0-1.69","null","<span style='color:red; font-size: 70px;'>错误! </span>","null","","","","","","","","","","","","","","","","","","","","","","","feedback_test"
"","","","","","psychophysics","151","288452","0.0-7.0-0.0-0.70","506","","f","","","","","","","","","","","","","key","f","16.665999999999816","720","446","f","true","img/T_ambi40.png","三角","prac_image_first",""
"","","","","","html-keyboard-response","152","288756","0.0-7.0-0.0-1.70","null","<span style='color:GreenYellow; font-size: 70px;'>正确! </span>","null","","","","","","","","","","","","","","","","","","","","","","","feedback_test"
"","","","","","psychophysics","153","290434","0.0-7.0-0.0-0.71","528","","f","","","","","","","","","","","","","key","f","16.67129292929277","720","446","f","true","img/C_ambi40.png","圆形","prac_image_first",""
"","","","","","html-keyboard-response","154","290735","0.0-7.0-0.0-1.71","null","<span style='color:GreenYellow; font-size: 70px;'>正确! </span>","null","","","","","","","","","","","","","","","","","","","","","","","feedback_test"
"","","","","","html-keyboard-response","155","292187","0.0-8.0","1450","<style>.context{color:white; font-size: 35px; line-height:40px}</style>                            <div><p class='context'>您正确回答了89% 的试次。</p><p class='context'>您的平均反应时为636毫秒。</p><p class='context'>恭喜您完成这一阶段的练习。按任意键进入<span style='color: yellow;'>先文字后图形条件</span>的练习。</p></div>","j","","","","","","","","","","","","","","","","","","","","","","",""
"","","","","","psychophysics","156","294055","0.0-9.0-0.0-0.0","713","","j","","","","","","","","","","","","","key","j","16.665999999999798","720","446","f","false","img/T_ambi40.png","三角","prac_word_first",""
"","","","","","html-keyboard-response","157","294358","0.0-9.0-0.0-1.0","null","<span style='color:red; font-size: 70px;'>错误! </span>","null","","","","","","","","","","","","","","","","","","","","","","","feedback_test"
"","","","","","psychophysics","158","295990","0.0-9.0-0.0-0.1","481","","f","","","","","","","","","","","","","key","f","16.66600000000014","720","446","f","true","img/C_ambi40.png","圆形","prac_word_first",""
"","","","","","html-keyboard-response","159","296292","0.0-9.0-0.0-1.1","null","<span style='color:GreenYellow; font-size: 70px;'>正确! </span>","null","","","","","","","","","","","","","","","","","","","","","","","feedback_test"
"","","","","","psychophysics","160","298015","0.0-9.0-0.0-0.2","572","","j","","","","","","","","","","","","","key","j","16.66600000000029","720","446","j","true","img/C_ambi40.png","三角","prac_word_first",""
"","","","","","html-keyboard-response","161","298317","0.0-9.0-0.0-1.2","null","<span style='color:GreenYellow; font-size: 70px;'>正确! </span>","null","","","","","","","","","","","","","","","","","","","","","","","feedback_test"
"","","","","","psychophysics","162","300378","0.0-9.0-0.0-0.3","910","","j","","","","","","","","","","","","","key","j","16.666000000000043","720","446","j","true","img/T_ambi40.png","方形","prac_word_first",""
"","","","","","html-keyboard-response","163","300683","0.0-9.0-0.0-1.3","null","<span style='color:GreenYellow; font-size: 70px;'>正确! </span>","null","","","","","","","","","","","","","","","","","","","","","","","feedback_test"
"","","","","","psychophysics","164","302561","0.0-9.0-0.0-0.4","726","","j","","","","","","","","","","","","","key","j","16.666000000000036","720","446","j","true","img/C_ambi40.png","方形","prac_word_first",""
"","","","","","html-keyboard-response","165","302863","0.0-9.0-0.0-1.4","null","<span style='color:GreenYellow; font-size: 70px;'>正确! </span>","null","","","","","","","","","","","","","","","","","","","","","","","feedback_test"
"","","","","","psychophysics","166","304606","0.0-9.0-0.0-0.5","593","","f","","","","","","","","","","","","","key","f","16.665999999999677","720","446","f","true","img/T_ambi40.png","三角","prac_word_first",""
"","","","","","html-keyboard-response","167","304912","0.0-9.0-0.0-1.5","null","<span style='color:GreenYellow; font-size: 70px;'>正确! </span>","null","","","","","","","","","","","","","","","","","","","","","","","feedback_test"
"","","","","","psychophysics","168","306499","0.0-9.0-0.0-0.6","437","","j","","","","","","","","","","","","","key","j","16.665999999999915","720","446","j","true","img/T_ambi40.png","圆形","prac_word_first",""
"","","","","","html-keyboard-response","169","306800","0.0-9.0-0.0-1.6","null","<span style='color:GreenYellow; font-size: 70px;'>正确! </span>","null","","","","","","","","","","","","","","","","","","","","","","","feedback_test"
"","","","","","psychophysics","170","308972","0.0-9.0-0.0-0.7","1020","","f","","","","","","","","","","","","","key","f","16.665999999999922","720","446","f","true","img/S_ambi40.png","方形","prac_word_first",""
"","","","","","html-keyboard-response","171","309277","0.0-9.0-0.0-1.7","null","<span style='color:GreenYellow; font-size: 70px;'>正确! </span>","null","","","","","","","","","","","","","","","","","","","","","","","feedback_test"
"","","","","","psychophysics","172","311335","0.0-9.0-0.0-0.8","908","","j","","","","","","","","","","","","","key","j","16.670295081967318","720","446","f","false","img/S_ambi40.png","方形","prac_word_first",""
"","","","","","html-keyboard-response","173","311636","0.0-9.0-0.0-1.8","null","<span style='color:red; font-size: 70px;'>错误! </span>","null","","","","","","","","","","","","","","","","","","","","","","","feedback_test"
"","","","","","psychophysics","174","313631","0.0-9.0-0.0-0.9","844","","j","","","","","","","","","","","","","key","j","16.66600000000013","720","446","j","true","img/S_ambi40.png","三角","prac_word_first",""
"","","","","","html-keyboard-response","175","313935","0.0-9.0-0.0-1.9","null","<span style='color:GreenYellow; font-size: 70px;'>正确! </span>","null","","","","","","","","","","","","","","","","","","","","","","","feedback_test"
"","","","","","psychophysics","176","315633","0.0-9.0-0.0-0.10","546","","j","","","","","","","","","","","","","key","j","16.666000000000032","720","446","j","true","img/S_ambi40.png","圆形","prac_word_first",""
"","","","","","html-keyboard-response","177","315939","0.0-9.0-0.0-1.10","null","<span style='color:GreenYellow; font-size: 70px;'>正确! </span>","null","","","","","","","","","","","","","","","","","","","","","","","feedback_test"
"","","","","","psychophysics","178","317727","0.0-9.0-0.0-0.11","637","","f","","","","","","","","","","","","","key","f","16.666000000000185","720","446","f","true","img/C_ambi40.png","圆形","prac_word_first",""
"","","","","","html-keyboard-response","179","318028","0.0-9.0-0.0-1.11","null","<span style='color:GreenYellow; font-size: 70px;'>正确! </span>","null","","","","","","","","","","","","","","","","","","","","","","","feedback_test"
"","","","","","psychophysics","180","319771","0.0-9.0-0.0-0.12","588","","f","","","","","","","","","","","","","key","f","16.665999999999983","720","446","f","true","img/S_ambi40.png","方形","prac_word_first",""
"","","","","","html-keyboard-response","181","320076","0.0-9.0-0.0-1.12","null","<span style='color:GreenYellow; font-size: 70px;'>正确! </span>","null","","","","","","","","","","","","","","","","","","","","","","","feedback_test"
"","","","","","psychophysics","182","321774","0.0-9.0-0.0-0.13","545","","j","","","","","","","","","","","","","key","j","16.665999999999723","720","446","j","true","img/S_ambi40.png","圆形","prac_word_first",""
"","","","","","html-keyboard-response","183","322078","0.0-9.0-0.0-1.13","null","<span style='color:GreenYellow; font-size: 70px;'>正确! </span>","null","","","","","","","","","","","","","","","","","","","","","","","feedback_test"
"","","","","","psychophysics","184","323845","0.0-9.0-0.0-0.14","616","","j","","","","","","","","","","","","","key","j","16.665999999999933","720","446","j","true","img/S_ambi40.png","三角","prac_word_first",""
"","","","","","html-keyboard-response","185","324145","0.0-9.0-0.0-1.14","null","<span style='color:GreenYellow; font-size: 70px;'>正确! </span>","null","","","","","","","","","","","","","","","","","","","","","","","feedback_test"
"","","","","","psychophysics","186","325982","0.0-9.0-0.0-0.15","686","","j","","","","","","","","","","","","","key","j","16.66599999999984","720","446","j","true","img/T_ambi40.png","圆形","prac_word_first",""
"","","","","","html-keyboard-response","187","326285","0.0-9.0-0.0-1.15","null","<span style='color:GreenYellow; font-size: 70px;'>正确! </span>","null","","","","","","","","","","","","","","","","","","","","","","","feedback_test"
"","","","","","psychophysics","188","327917","0.0-9.0-0.0-0.16","480","","f","","","","","","","","","","","","","key","f","16.66600000000014","720","446","f","true","img/C_ambi40.png","圆形","prac_word_first",""
"","","","","","html-keyboard-response","189","328217","0.0-9.0-0.0-1.16","null","<span style='color:GreenYellow; font-size: 70px;'>正确! </span>","null","","","","","","","","","","","","","","","","","","","","","","","feedback_test"
"","","","","","psychophysics","190","329830","0.0-9.0-0.0-0.17","459","","f","","","","","","","","","","","","","key","f","16.665999999999865","720","446","f","true","img/C_ambi40.png","圆形","prac_word_first",""
"","","","","","html-keyboard-response","191","330131","0.0-9.0-0.0-1.17","null","<span style='color:GreenYellow; font-size: 70px;'>正确! </span>","null","","","","","","","","","","","","","","","","","","","","","","","feedback_test"
"","","","","","psychophysics","192","332035","0.0-9.0-0.0-0.18","752","","f","","","","","","","","","","","","","key","f","16.665999999999755","720","446","f","true","img/S_ambi40.png","方形","prac_word_first",""
"","","","","","html-keyboard-response","193","332336","0.0-9.0-0.0-1.18","null","<span style='color:GreenYellow; font-size: 70px;'>正确! </span>","null","","","","","","","","","","","","","","","","","","","","","","","feedback_test"
"","","","","","psychophysics","194","334126","0.0-9.0-0.0-0.19","639","","f","","","","","","","","","","","","","key","f","16.66600000000043","720","446","f","true","img/T_ambi40.png","三角","prac_word_first",""
"","","","","","html-keyboard-response","195","334428","0.0-9.0-0.0-1.19","null","<span style='color:GreenYellow; font-size: 70px;'>正确! </span>","null","","","","","","","","","","","","","","","","","","","","","","","feedback_test"
"","","","","","psychophysics","196","336016","0.0-9.0-0.0-0.20","437","","j","","","","","","","","","","","","","key","j","16.665999999999915","720","446","j","true","img/C_ambi40.png","方形","prac_word_first",""
"","","","","","html-keyboard-response","197","336317","0.0-9.0-0.0-1.20","null","<span style='color:GreenYellow; font-size: 70px;'>正确! </span>","null","","","","","","","","","","","","","","","","","","","","","","","feedback_test"
"","","","","","psychophysics","198","338086","0.0-9.0-0.0-0.21","618","","f","","","","","","","","","","","","","key","f","16.665999999999933","720","446","f","true","img/T_ambi40.png","三角","prac_word_first",""
"","","","","","html-keyboard-response","199","338391","0.0-9.0-0.0-1.21","null","<span style='color:GreenYellow; font-size: 70px;'>正确! </span>","null","","","","","","","","","","","","","","","","","","","","","","","feedback_test"
"","","","","","psychophysics","200","339998","0.0-9.0-0.0-0.22","456","","j","","","","","","","","","","","","","key","j","16.666000000000196","720","446","j","true","img/C_ambi40.png","三角","prac_word_first",""
"","","","","","html-keyboard-response","201","340300","0.0-9.0-0.0-1.22","null","<span style='color:GreenYellow; font-size: 70px;'>正确! </span>","null","","","","","","","","","","","","","","","","","","","","","","","feedback_test"
"","","","","","psychophysics","202","342046","0.0-9.0-0.0-0.23","595","","j","","","","","","","","","","","","","key","j","16.66600000000024","720","446","j","true","img/T_ambi40.png","方形","prac_word_first",""
"","","","","","html-keyboard-response","203","342351","0.0-9.0-0.0-1.23","null","<span style='color:GreenYellow; font-size: 70px;'>正确! </span>","null","","","","","","","","","","","","","","","","","","","","","","","feedback_test"
"","","","","","psychophysics","204","344116","0.0-9.0-0.0-0.24","611","","f","","","","","","","","","","","","","key","f","16.665999999999933","720","446","f","true","img/C_ambi40.png","圆形","prac_word_first",""
"","","","","","html-keyboard-response","205","344417","0.0-9.0-0.0-1.24","null","<span style='color:GreenYellow; font-size: 70px;'>正确! </span>","null","","","","","","","","","","","","","","","","","","","","","","","feedback_test"
"","","","","","psychophysics","206","346051","0.0-9.0-0.0-0.25","484","","j","","","","","","","","","","","","","key","j","16.66599999999954","720","446","j","true","img/C_ambi40.png","三角","prac_word_first",""
"","","","","","html-keyboard-response","207","346355","0.0-9.0-0.0-1.25","null","<span style='color:GreenYellow; font-size: 70px;'>正确! </span>","null","","","","","","","","","","","","","","","","","","","","","","","feedback_test"
"","","","","","psychophysics","208","347985","0.0-9.0-0.0-0.26","480","","j","","","","","","","","","","","","","key","j","16.66600000000047","720","446","j","true","img/T_ambi40.png","方形","prac_word_first",""
"","","","","","html-keyboard-response","209","348289","0.0-9.0-0.0-1.26","null","<span style='color:GreenYellow; font-size: 70px;'>正确! </span>","null","","","","","","","","","","","","","","","","","","","","","","","feedback_test"
"","","","","","psychophysics","210","350078","0.0-9.0-0.0-0.27","639","","f","","","","","","","","","","","","","key","f","16.67094339622692","720","446","f","true","img/S_ambi40.png","方形","prac_word_first",""
"","","","","","html-keyboard-response","211","350383","0.0-9.0-0.0-1.27","null","<span style='color:GreenYellow; font-size: 70px;'>正确! </span>","null","","","","","","","","","","","","","","","","","","","","","","","feedback_test"
"","","","","","psychophysics","212","352035","0.0-9.0-0.0-0.28","500","","j","","","","","","","","","","","","","key","j","16.665999999999816","720","446","f","false","img/S_ambi40.png","方形","prac_word_first",""
"","","","","","html-keyboard-response","213","352339","0.0-9.0-0.0-1.28","null","<span style='color:red; font-size: 70px;'>错误! </span>","null","","","","","","","","","","","","","","","","","","","","","","","feedback_test"
"","","","","","psychophysics","214","354331","0.0-9.0-0.0-0.29","840","","j","","","","","","","","","","","","","key","j","16.665999999999904","720","446","j","true","img/S_ambi40.png","圆形","prac_word_first",""
"","","","","","html-keyboard-response","215","354633","0.0-9.0-0.0-1.29","null","<span style='color:GreenYellow; font-size: 70px;'>正确! </span>","null","","","","","","","","","","","","","","","","","","","","","","","feedback_test"
"","","","","","psychophysics","216","356288","0.0-9.0-0.0-0.30","502","","j","","","","","","","","","","","","","key","j","16.665999999999816","720","446","j","true","img/C_ambi40.png","方形","prac_word_first",""
"","","","","","html-keyboard-response","217","356589","0.0-9.0-0.0-1.30","null","<span style='color:GreenYellow; font-size: 70px;'>正确! </span>","null","","","","","","","","","","","","","","","","","","","","","","","feedback_test"
"","","","","","psychophysics","218","358225","0.0-9.0-0.0-0.31","485","","j","","","","","","","","","","","","","key","j","16.66600000000014","720","446","j","true","img/S_ambi40.png","三角","prac_word_first",""
"","","","","","html-keyboard-response","219","358530","0.0-9.0-0.0-1.31","null","<span style='color:GreenYellow; font-size: 70px;'>正确! </span>","null","","","","","","","","","","","","","","","","","","","","","","","feedback_test"
"","","","","","psychophysics","220","360226","0.0-9.0-0.0-0.32","545","","j","","","","","","","","","","","","","key","j","16.666000000000032","720","446","j","true","img/T_ambi40.png","圆形","prac_word_first",""
"","","","","","html-keyboard-response","221","360529","0.0-9.0-0.0-1.32","null","<span style='color:GreenYellow; font-size: 70px;'>正确! </span>","null","","","","","","","","","","","","","","","","","","","","","","","feedback_test"
"","","","","","psychophysics","222","362341","0.0-9.0-0.0-0.33","660","","f","","","","","","","","","","","","","key","f","16.666000000000135","720","446","f","true","img/C_ambi40.png","圆形","prac_word_first",""
"","","","","","html-keyboard-response","223","362644","0.0-9.0-0.0-1.33","null","<span style='color:GreenYellow; font-size: 70px;'>正确! </span>","null","","","","","","","","","","","","","","","","","","","","","","","feedback_test"
"","","","","","psychophysics","224","364344","0.0-9.0-0.0-0.34","548","","f","","","","","","","","","","","","","key","f","16.666000000000032","720","446","f","true","img/T_ambi40.png","三角","prac_word_first",""
"","","","","","html-keyboard-response","225","364647","0.0-9.0-0.0-1.34","null","<span style='color:GreenYellow; font-size: 70px;'>正确! </span>","null","","","","","","","","","","","","","","","","","","","","","","","feedback_test"
"","","","","","psychophysics","226","366818","0.0-9.0-0.0-0.35","1021","","f","","","","","","","","","","","","","key","f","16.665999999999922","720","446","f","true","img/T_ambi40.png","三角","prac_word_first",""
"","","","","","html-keyboard-response","227","367125","0.0-9.0-0.0-1.35","null","<span style='color:GreenYellow; font-size: 70px;'>正确! </span>","null","","","","","","","","","","","","","","","","","","","","","","","feedback_test"
"","","","","","psychophysics","228","368867","0.0-9.0-0.0-0.36","591","","f","","","","","","","","","","","","","key","f","16.665999999999983","720","446","f","true","img/T_ambi40.png","三角","prac_word_first",""
"","","","","","html-keyboard-response","229","369170","0.0-9.0-0.0-1.36","null","<span style='color:GreenYellow; font-size: 70px;'>正确! </span>","null","","","","","","","","","","","","","","","","","","","","","","","feedback_test"
"","","","","","psychophysics","230","370756","0.0-9.0-0.0-0.37","435","","j","","","","","","","","","","","","","key","j","16.671574468084764","720","446","j","true","img/T_ambi40.png","方形","prac_word_first",""
"","","","","","html-keyboard-response","231","371059","0.0-9.0-0.0-1.37","null","<span style='color:GreenYellow; font-size: 70px;'>正确! </span>","null","","","","","","","","","","","","","","","","","","","","","","","feedback_test"
"","","","","","psychophysics","232","372848","0.0-9.0-0.0-0.38","638","","f","","","","","","","","","","","","","key","f","16.666000000000185","720","446","f","true","img/C_ambi40.png","圆形","prac_word_first",""
"","","","","","html-keyboard-response","233","373152","0.0-9.0-0.0-1.38","null","<span style='color:GreenYellow; font-size: 70px;'>正确! </span>","null","","","","","","","","","","","","","","","","","","","","","","","feedback_test"
"","","","","","psychophysics","234","375008","0.0-9.0-0.0-0.39","704","","j","","","","","","","","","","","","","key","j","16.666000000000324","720","446","j","true","img/C_ambi40.png","三角","prac_word_first",""
"","","","","","html-keyboard-response","235","375309","0.0-9.0-0.0-1.39","null","<span style='color:GreenYellow; font-size: 70px;'>正确! </span>","null","","","","","","","","","","","","","","","","","","","","","","","feedback_test"
"","","","","","psychophysics","236","377032","0.0-9.0-0.0-0.40","573","","f","","","","","","","","","","","","","key","f","16.66600000000029","720","446","f","true","img/S_ambi40.png","方形","prac_word_first",""
"","","","","","html-keyboard-response","237","377336","0.0-9.0-0.0-1.40","null","<span style='color:GreenYellow; font-size: 70px;'>正确! </span>","null","","","","","","","","","","","","","","","","","","","","","","","feedback_test"
"","","","","","psychophysics","238","378991","0.0-9.0-0.0-0.41","504","","f","","","","","","","","","","","","","key","f","16.66600000000041","720","446","f","true","img/T_ambi40.png","三角","prac_word_first",""
"","","","","","html-keyboard-response","239","379296","0.0-9.0-0.0-1.41","null","<span style='color:GreenYellow; font-size: 70px;'>正确! </span>","null","","","","","","","","","","","","","","","","","","","","","","","feedback_test"
"","","","","","psychophysics","240","380926","0.0-9.0-0.0-0.42","480","","f","","","","","","","","","","","","","key","f","16.66600000000014","720","446","f","true","img/S_ambi40.png","方形","prac_word_first",""
"","","","","","html-keyboard-response","241","381229","0.0-9.0-0.0-1.42","null","<span style='color:GreenYellow; font-size: 70px;'>正确! </span>","null","","","","","","","","","","","","","","","","","","","","","","","feedback_test"
"","","","","","psychophysics","242","382860","0.0-9.0-0.0-0.43","480","","j","","","","","","","","","","","","","key","j","16.66600000000014","720","446","j","true","img/S_ambi40.png","三角","prac_word_first",""
"","","","","","html-keyboard-response","243","383163","0.0-9.0-0.0-1.43","null","<span style='color:GreenYellow; font-size: 70px;'>正确! </span>","null","","","","","","","","","","","","","","","","","","","","","","","feedback_test"
"","","","","","psychophysics","244","384977","0.0-9.0-0.0-0.44","663","","j","","","","","","","","","","","","","key","j","16.666000000000135","720","446","j","true","img/S_ambi40.png","圆形","prac_word_first",""
"","","","","","html-keyboard-response","245","385283","0.0-9.0-0.0-1.44","null","<span style='color:GreenYellow; font-size: 70px;'>正确! </span>","null","","","","","","","","","","","","","","","","","","","","","","","feedback_test"
"","","","","","psychophysics","246","386910","0.0-9.0-0.0-0.45","475","","j","","","","","","","","","","","","","key","j","16.66600000000014","720","446","j","true","img/C_ambi40.png","方形","prac_word_first",""
"","","","","","html-keyboard-response","247","387215","0.0-9.0-0.0-1.45","null","<span style='color:GreenYellow; font-size: 70px;'>正确! </span>","null","","","","","","","","","","","","","","","","","","","","","","","feedback_test"
"","","","","","psychophysics","248","388845","0.0-9.0-0.0-0.46","477","","j","","","","","","","","","","","","","key","j","16.66599999999954","720","446","j","true","img/T_ambi40.png","圆形","prac_word_first",""
"","","","","","html-keyboard-response","249","389147","0.0-9.0-0.0-1.46","null","<span style='color:GreenYellow; font-size: 70px;'>正确! </span>","null","","","","","","","","","","","","","","","","","","","","","","","feedback_test"
"","","","","","psychophysics","250","390759","0.0-9.0-0.0-0.47","460","","f","","","","","","","","","","","","","key","f","16.67144791666639","720","446","f","true","img/C_ambi40.png","圆形","prac_word_first",""
"","","","","","html-keyboard-response","251","391061","0.0-9.0-0.0-1.47","null","<span style='color:GreenYellow; font-size: 70px;'>正确! </span>","null","","","","","","","","","","","","","","","","","","","","","","","feedback_test"
"","","","","","psychophysics","252","392647","0.0-9.0-0.0-0.48","432","","j","","","","","","","","","","","","","key","j","16.666000000000533","720","446","j","true","img/C_ambi40.png","方形","prac_word_first",""
"","","","","","html-keyboard-response","253","392952","0.0-9.0-0.0-1.48","null","<span style='color:GreenYellow; font-size: 70px;'>正确! </span>","null","","","","","","","","","","","","","","","","","","","","","","","feedback_test"
"","","","","","psychophysics","254","394583","0.0-9.0-0.0-0.49","480","","f","","","","","","","","","","","","","key","f","16.66600000000047","720","446","j","false","img/S_ambi40.png","圆形","prac_word_first",""
"","","","","","html-keyboard-response","255","394886","0.0-9.0-0.0-1.49","null","<span style='color:red; font-size: 70px;'>错误! </span>","null","","","","","","","","","","","","","","","","","","","","","","","feedback_test"
"","","","","","psychophysics","256","396630","0.0-9.0-0.0-0.50","593","","j","","","","","","","","","","","","","key","j","16.665999999999983","720","446","j","true","img/T_ambi40.png","圆形","prac_word_first",""
"","","","","","html-keyboard-response","257","396933","0.0-9.0-0.0-1.50","null","<span style='color:GreenYellow; font-size: 70px;'>正确! </span>","null","","","","","","","","","","","","","","","","","","","","","","","feedback_test"
"","","","","","psychophysics","258","398610","0.0-9.0-0.0-0.51","522","","f","","","","","","","","","","","","","key","f","16.665999999999766","720","446","j","false","img/T_ambi40.png","方形","prac_word_first",""
"","","","","","html-keyboard-response","259","398914","0.0-9.0-0.0-1.51","null","<span style='color:red; font-size: 70px;'>错误! </span>","null","","","","","","","","","","","","","","","","","","","","","","","feedback_test"
"","","","","","psychophysics","260","400612","0.0-9.0-0.0-0.52","546","","j","","","","","","","","","","","","","key","j","16.666000000000032","720","446","f","false","img/C_ambi40.png","圆形","prac_word_first",""
"","","","","","html-keyboard-response","261","400916","0.0-9.0-0.0-1.52","null","<span style='color:red; font-size: 70px;'>错误! </span>","null","","","","","","","","","","","","","","","","","","","","","","","feedback_test"
"","","","","","psychophysics","262","402795","0.0-9.0-0.0-0.53","727","","f","","","","","","","","","","","","","key","f","16.666000000000036","720","446","f","true","img/S_ambi40.png","方形","prac_word_first",""
"","","","","","html-keyboard-response","263","403100","0.0-9.0-0.0-1.53","null","<span style='color:GreenYellow; font-size: 70px;'>正确! </span>","null","","","","","","","","","","","","","","","","","","","","","","","feedback_test"
"","","","","","psychophysics","264","405045","0.0-9.0-0.0-0.54","793","","f","","","","","","","","","","","","","key","f","16.665999999999947","720","446","f","true","img/C_ambi40.png","圆形","prac_word_first",""
"","","","","","html-keyboard-response","265","405350","0.0-9.0-0.0-1.54","null","<span style='color:GreenYellow; font-size: 70px;'>正确! </span>","null","","","","","","","","","","","","","","","","","","","","","","","feedback_test"
"","","","","","psychophysics","266","407070","0.0-9.0-0.0-0.55","569","","j","","","","","","","","","","","","","key","j","16.665999999999983","720","446","j","true","img/C_ambi40.png","三角","prac_word_first",""
"","","","","","html-keyboard-response","267","407374","0.0-9.0-0.0-1.55","null","<span style='color:GreenYellow; font-size: 70px;'>正确! </span>","null","","","","","","","","","","","","","","","","","","","","","","","feedback_test"
"","","","","","psychophysics","268","409139","0.0-9.0-0.0-0.56","614","","f","","","","","","","","","","","","","key","f","16.665999999999933","720","446","f","true","img/T_ambi40.png","三角","prac_word_first",""
"","","","","","html-keyboard-response","269","409440","0.0-9.0-0.0-1.56","null","<span style='color:GreenYellow; font-size: 70px;'>正确! </span>","null","","","","","","","","","","","","","","","","","","","","","","","feedback_test"
"","","","","","psychophysics","270","411187","0.0-9.0-0.0-0.57","596","","f","","","","","","","","","","","","","key","f","16.67109708737885","720","446","f","true","img/S_ambi40.png","方形","prac_word_first",""
"","","","","","html-keyboard-response","271","411488","0.0-9.0-0.0-1.57","null","<span style='color:GreenYellow; font-size: 70px;'>正确! </span>","null","","","","","","","","","","","","","","","","","","","","","","","feedback_test"
"","","","","","psychophysics","272","413279","0.0-9.0-0.0-0.58","640","","f","","","","","","","","","","","","","key","f","16.666000000000185","720","446","f","true","img/T_ambi40.png","三角","prac_word_first",""
"","","","","","html-keyboard-response","273","413582","0.0-9.0-0.0-1.58","null","<span style='color:GreenYellow; font-size: 70px;'>正确! </span>","null","","","","","","","","","","","","","","","","","","","","","","","feedback_test"
"","","","","","psychophysics","274","415214","0.0-9.0-0.0-0.59","479","","j","","","","","","","","","","","","","key","j","16.66600000000014","720","446","j","true","img/S_ambi40.png","三角","prac_word_first",""
"","","","","","html-keyboard-response","275","415518","0.0-9.0-0.0-1.59","null","<span style='color:GreenYellow; font-size: 70px;'>正确! </span>","null","","","","","","","","","","","","","","","","","","","","","","","feedback_test"
"","","","","","psychophysics","276","417376","0.0-9.0-0.0-0.60","706","","f","","","","","","","","","","","","","key","f","16.665999999999798","720","446","f","true","img/T_ambi40.png","三角","prac_word_first",""
"","","","","","html-keyboard-response","277","417677","0.0-9.0-0.0-1.60","null","<span style='color:GreenYellow; font-size: 70px;'>正确! </span>","null","","","","","","","","","","","","","","","","","","","","","","","feedback_test"
"","","","","","psychophysics","278","419287","0.0-9.0-0.0-0.61","458","","f","","","","","","","","","","","","","key","f","16.665999999999865","720","446","j","false","img/T_ambi40.png","圆形","prac_word_first",""
"","","","","","html-keyboard-response","279","419592","0.0-9.0-0.0-1.61","null","<span style='color:red; font-size: 70px;'>错误! </span>","null","","","","","","","","","","","","","","","","","","","","","","","feedback_test"
"","","","","","psychophysics","280","421424","0.0-9.0-0.0-0.62","681","","j","","","","","","","","","","","","","key","j","16.666000000000377","720","446","j","true","img/T_ambi40.png","方形","prac_word_first",""
"","","","","","html-keyboard-response","281","421727","0.0-9.0-0.0-1.62","null","<span style='color:GreenYellow; font-size: 70px;'>正确! </span>","null","","","","","","","","","","","","","","","","","","","","","","","feedback_test"
"","","","","","psychophysics","282","423404","0.0-9.0-0.0-0.63","525","","j","","","","","","","","","","","","","key","j","16.665999999999766","720","446","j","true","img/S_ambi40.png","圆形","prac_word_first",""
"","","","","","html-keyboard-response","283","423708","0.0-9.0-0.0-1.63","null","<span style='color:GreenYellow; font-size: 70px;'>正确! </span>","null","","","","","","","","","","","","","","","","","","","","","","","feedback_test"
"","","","","","psychophysics","284","425474","0.0-9.0-0.0-0.64","615","","j","","","","","","","","","","","","","key","j","16.665999999999933","720","446","j","true","img/S_ambi40.png","三角","prac_word_first",""
"","","","","","html-keyboard-response","285","425779","0.0-9.0-0.0-1.64","null","<span style='color:GreenYellow; font-size: 70px;'>正确! </span>","null","","","","","","","","","","","","","","","","","","","","","","","feedback_test"
"","","","","","psychophysics","286","427522","0.0-9.0-0.0-0.65","592","","j","","","","","","","","","","","","","key","j","16.66600000000024","720","446","j","true","img/C_ambi40.png","三角","prac_word_first",""
"","","","","","html-keyboard-response","287","427825","0.0-9.0-0.0-1.65","null","<span style='color:GreenYellow; font-size: 70px;'>正确! </span>","null","","","","","","","","","","","","","","","","","","","","","","","feedback_test"
"","","","","","psychophysics","288","429614","0.0-9.0-0.0-0.66","637","","f","","","","","","","","","","","","","key","f","16.666000000000185","720","446","f","true","img/S_ambi40.png","方形","prac_word_first",""
"","","","","","html-keyboard-response","289","429916","0.0-9.0-0.0-1.66","null","<span style='color:GreenYellow; font-size: 70px;'>正确! </span>","null","","","","","","","","","","","","","","","","","","","","","","","feedback_test"
"","","","","","psychophysics","290","431593","0.0-9.0-0.0-0.67","524","","f","","","","","","","","","","","","","key","f","16.671240000000108","720","446","f","true","img/C_ambi40.png","圆形","prac_word_first",""
"","","","","","html-keyboard-response","291","431895","0.0-9.0-0.0-1.67","null","<span style='color:GreenYellow; font-size: 70px;'>正确! </span>","null","","","","","","","","","","","","","","","","","","","","","","","feedback_test"
"","","","","","psychophysics","292","433552","0.0-9.0-0.0-0.68","506","","f","","","","","","","","","","","","","key","f","16.66600000000041","720","446","f","true","img/C_ambi40.png","圆形","prac_word_first",""
"","","","","","html-keyboard-response","293","433856","0.0-9.0-0.0-1.68","null","<span style='color:GreenYellow; font-size: 70px;'>正确! </span>","null","","","","","","","","","","","","","","","","","","","","","","","feedback_test"
"","","","","","psychophysics","294","435643","0.0-9.0-0.0-0.69","636","","f","","","","","","","","","","","","","key","f","16.666000000000185","720","446","f","true","img/S_ambi40.png","方形","prac_word_first",""
"","","","","","html-keyboard-response","295","435948","0.0-9.0-0.0-1.69","null","<span style='color:GreenYellow; font-size: 70px;'>正确! </span>","null","","","","","","","","","","","","","","","","","","","","","","","feedback_test"
"","","","","","psychophysics","296","437557","0.0-9.0-0.0-0.70","458","","j","","","","","","","","","","","","","key","j","16.66600000000047","720","446","j","true","img/C_ambi40.png","方形","prac_word_first",""
"","","","","","html-keyboard-response","297","437861","0.0-9.0-0.0-1.70","null","<span style='color:GreenYellow; font-size: 70px;'>正确! </span>","null","","","","","","","","","","","","","","","","","","","","","","","feedback_test"
"","","","","","psychophysics","298","439581","0.0-9.0-0.0-0.71","569","","f","","","","","","","","","","","","","key","f","16.665999999999723","720","446","f","true","img/T_ambi40.png","三角","prac_word_first",""
"","","","","","html-keyboard-response","299","439886","0.0-9.0-0.0-1.71","null","<span style='color:GreenYellow; font-size: 70px;'>正确! </span>","null","","","","","","","","","","","","","","","","","","","","","","","feedback_test"
"","","","","","html-keyboard-response","300","555634","0.0-10.0","115747","<style>.context{color:white; font-size: 35px; line-height:40px}</style>                            <div><p class='context'>您正确回答了90% 的试次。</p><p class='context'>您的平均反应时为597毫秒。</p><p class='context'>恭喜您完成练习。按任意键进入<span style='color: yellow;'>图形和文字同时呈现条件</span>的练习。</p></div>","f","","","","","","","","","","","","","","","","","","","","","","",""
"","","","","","psychophysics","301","557681","0.0-11.0-0.0-0.0","936","","f","","","","","","","","","","","","","key","f","16.69319008264502","720","446","j","false","img/S_ambi40.png","三角","prac_simultaneous",""
"","","","","","html-keyboard-response","302","557988","0.0-11.0-0.0-1.0","null","<span style='color:red; font-size: 70px;'>错误! </span>","null","","","","","","","","","","","","","","","","","","","","","","","feedback_test"
"","","","","","psychophysics","303","559503","0.0-11.0-0.0-0.1","414","","f","","","","","","","","","","","","","key","f","16.666000000000672","720","446","f","true","img/S_ambi40.png","方形","prac_simultaneous",""
"","","","","","html-keyboard-response","304","559805","0.0-11.0-0.0-1.1","null","<span style='color:GreenYellow; font-size: 70px;'>正确! </span>","null","","","","","","","","","","","","","","","","","","","","","","","feedback_test"
"","","","","","psychophysics","305","561439","0.0-11.0-0.0-0.2","533","","j","","","","","","","","","","","","","key","j","16.66599999999954","720","446","j","true","img/S_ambi40.png","圆形","prac_simultaneous",""
"","","","","","html-keyboard-response","306","561740","0.0-11.0-0.0-1.2","null","<span style='color:GreenYellow; font-size: 70px;'>正确! </span>","null","","","","","","","","","","","","","","","","","","","","","","","feedback_test"
"","","","","","psychophysics","307","563464","0.0-11.0-0.0-0.3","623","","j","","","","","","","","","","","","","key","j","16.66600000000029","720","446","j","true","img/C_ambi40.png","三角","prac_simultaneous",""
"","","","","","html-keyboard-response","308","563765","0.0-11.0-0.0-1.3","null","<span style='color:GreenYellow; font-size: 70px;'>正确! </span>","null","","","","","","","","","","","","","","","","","","","","","","","feedback_test"
"","","","","","psychophysics","309","565713","0.0-11.0-0.0-0.4","847","","j","","","","","","","","","","","","","key","j","16.665999999999716","720","446","j","true","img/T_ambi40.png","圆形","prac_simultaneous",""
"","","","","","html-keyboard-response","310","566018","0.0-11.0-0.0-1.4","null","<span style='color:GreenYellow; font-size: 70px;'>正确! </span>","null","","","","","","","","","","","","","","","","","","","","","","","feedback_test"
"","","","","","psychophysics","311","567493","0.0-11.0-0.0-0.5","374","","f","","","","","","","","","","","","","key","f","16.666000000000448","720","446","f","true","img/C_ambi40.png","圆形","prac_simultaneous",""
"","","","","","html-keyboard-response","312","567797","0.0-11.0-0.0-1.5","null","<span style='color:GreenYellow; font-size: 70px;'>正确! </span>","null","","","","","","","","","","","","","","","","","","","","","","","feedback_test"
"","","","","","psychophysics","313","569452","0.0-11.0-0.0-0.6","553","","f","","","","","","","","","","","","","key","f","16.666000000000086","720","446","f","true","img/T_ambi40.png","三角","prac_simultaneous",""
"","","","","","html-keyboard-response","314","569758","0.0-11.0-0.0-1.6","null","<span style='color:GreenYellow; font-size: 70px;'>正确! </span>","null","","","","","","","","","","","","","","","","","","","","","","","feedback_test"
"","","","","","psychophysics","315","571634","0.0-11.0-0.0-0.7","772","","j","","","","","","","","","","","","","key","j","16.666000000000558","720","446","j","true","img/T_ambi40.png","方形","prac_simultaneous",""
"","","","","","html-keyboard-response","316","571941","0.0-11.0-0.0-1.7","null","<span style='color:GreenYellow; font-size: 70px;'>正确! </span>","null","","","","","","","","","","","","","","","","","","","","","","","feedback_test"
"","","","","","psychophysics","317","573725","0.0-11.0-0.0-0.8","682","","f","","","","","","","","","","","","","key","f","16.666000000000185","720","446","f","true","img/C_ambi40.png","圆形","prac_simultaneous",""
"","","","","","html-keyboard-response","318","574027","0.0-11.0-0.0-1.8","null","<span style='color:GreenYellow; font-size: 70px;'>正确! </span>","null","","","","","","","","","","","","","","","","","","","","","","","feedback_test"
"","","","","","psychophysics","319","575886","0.0-11.0-0.0-0.9","758","","f","","","","","","","","","","","","","key","f","16.670711711711913","720","446","f","true","img/T_ambi40.png","三角","prac_simultaneous",""
"","","","","","html-keyboard-response","320","576188","0.0-11.0-0.0-1.9","null","<span style='color:GreenYellow; font-size: 70px;'>正确! </span>","null","","","","","","","","","","","","","","","","","","","","","","","feedback_test"
"","","","","","psychophysics","321","578135","0.0-11.0-0.0-0.10","845","","j","","","","","","","","","","","","","key","j","16.665999999999446","720","446","j","true","img/C_ambi40.png","方形","prac_simultaneous",""
"","","","","","html-keyboard-response","322","578440","0.0-11.0-0.0-1.10","null","<span style='color:GreenYellow; font-size: 70px;'>正确! </span>","null","","","","","","","","","","","","","","","","","","","","","","","feedback_test"
"","","","","","psychophysics","323","580251","0.0-11.0-0.0-0.11","709","","f","","","","","","","","","","","","","key","f","16.665999999999595","720","446","f","true","img/S_ambi40.png","方形","prac_simultaneous",""
"","","","","","html-keyboard-response","324","580557","0.0-11.0-0.0-1.11","null","<span style='color:GreenYellow; font-size: 70px;'>正确! </span>","null","","","","","","","","","","","","","","","","","","","","","","","feedback_test"
"","","","","","psychophysics","325","582187","0.0-11.0-0.0-0.12","527","","f","","","","","","","","","","","","","key","f","16.66600000000074","720","446","f","true","img/T_ambi40.png","三角","prac_simultaneous",""
"","","","","","html-keyboard-response","326","582493","0.0-11.0-0.0-1.12","null","<span style='color:GreenYellow; font-size: 70px;'>正确! </span>","null","","","","","","","","","","","","","","","","","","","","","","","feedback_test"
"","","","","","psychophysics","327","584143","0.0-11.0-0.0-0.13","548","","f","","","","","","","","","","","","","key","f","16.665999999999222","720","446","f","true","img/C_ambi40.png","圆形","prac_simultaneous",""
"","","","","","html-keyboard-response","328","584449","0.0-11.0-0.0-1.13","null","<span style='color:GreenYellow; font-size: 70px;'>正确! </span>","null","","","","","","","","","","","","","","","","","","","","","","","feedback_test"
"","","","","","psychophysics","329","586165","0.0-11.0-0.0-0.14","615","","f","","","","","","","","","","","","","key","f","16.66600000000029","720","446","f","true","img/S_ambi40.png","方形","prac_simultaneous",""
"","","","","","html-keyboard-response","330","586470","0.0-11.0-0.0-1.14","null","<span style='color:GreenYellow; font-size: 70px;'>正确! </span>","null","","","","","","","","","","","","","","","","","","","","","","","feedback_test"
"","","","","","psychophysics","331","588281","0.0-11.0-0.0-0.15","710","","j","","","","","","","","","","","","","key","j","16.665999999999887","720","446","j","true","img/T_ambi40.png","圆形","prac_simultaneous",""
"","","","","","html-keyboard-response","332","588586","0.0-11.0-0.0-1.15","null","<span style='color:GreenYellow; font-size: 70px;'>正确! </span>","null","","","","","","","","","","","","","","","","","","","","","","","feedback_test"
"","","","","","psychophysics","333","590237","0.0-11.0-0.0-0.16","549","","f","","","","","","","","","","","","","key","f","16.66600000000041","720","446","f","true","img/S_ambi40.png","方形","prac_simultaneous",""
"","","","","","html-keyboard-response","334","590543","0.0-11.0-0.0-1.16","null","<span style='color:GreenYellow; font-size: 70px;'>正确! </span>","null","","","","","","","","","","","","","","","","","","","","","","","feedback_test"
"","","","","","psychophysics","335","592787","0.0-11.0-0.0-0.17","1140","","j","","","","","","","","","","","","","key","j","16.66600000000048","720","446","j","true","img/C_ambi40.png","方形","prac_simultaneous",""
"","","","","","html-keyboard-response","336","593089","0.0-11.0-0.0-1.17","null","<span style='color:GreenYellow; font-size: 70px;'>正确! </span>","null","","","","","","","","","","","","","","","","","","","","","","","feedback_test"
"","","","","","psychophysics","337","594830","0.0-11.0-0.0-0.18","640","","f","","","","","","","","","","","","","key","f","16.665999999999983","720","446","f","true","img/C_ambi40.png","圆形","prac_simultaneous",""
"","","","","","html-keyboard-response","338","595132","0.0-11.0-0.0-1.18","null","<span style='color:GreenYellow; font-size: 70px;'>正确! </span>","null","","","","","","","","","","","","","","","","","","","","","","","feedback_test"
"","","","","","psychophysics","339","596721","0.0-11.0-0.0-0.19","487","","f","","","","","","","","","","","","","key","f","16.671574468085385","720","446","f","true","img/T_ambi40.png","三角","prac_simultaneous",""
"","","","","","html-keyboard-response","340","597025","0.0-11.0-0.0-1.19","null","<span style='color:GreenYellow; font-size: 70px;'>正确! </span>","null","","","","","","","","","","","","","","","","","","","","","","","feedback_test"
"","","","","","psychophysics","341","599172","0.0-11.0-0.0-0.20","1044","","j","","","","","","","","","","","","","key","j","16.666000000000167","720","446","j","true","img/S_ambi40.png","圆形","prac_simultaneous",""
"","","","","","html-keyboard-response","342","599474","0.0-11.0-0.0-1.20","null","<span style='color:GreenYellow; font-size: 70px;'>正确! </span>","null","","","","","","","","","","","","","","","","","","","","","","","feedback_test"
"","","","","","psychophysics","343","601243","0.0-11.0-0.0-0.21","666","","j","","","","","","","","","","","","","key","j","16.666000000000487","720","446","j","true","img/C_ambi40.png","三角","prac_simultaneous",""
"","","","","","html-keyboard-response","344","601548","0.0-11.0-0.0-1.21","null","<span style='color:GreenYellow; font-size: 70px;'>正确! </span>","null","","","","","","","","","","","","","","","","","","","","","","","feedback_test"
"","","","","","psychophysics","345","603515","0.0-11.0-0.0-0.22","865","","j","","","","","","","","","","","","","key","j","16.666000000000174","720","446","j","true","img/T_ambi40.png","方形","prac_simultaneous",""
"","","","","","html-keyboard-response","346","603817","0.0-11.0-0.0-1.22","null","<span style='color:GreenYellow; font-size: 70px;'>正确! </span>","null","","","","","","","","","","","","","","","","","","","","","","","feedback_test"
"","","","","","psychophysics","347","605429","0.0-11.0-0.0-0.23","510","","j","","","","","","","","","","","","","key","j","16.666000000000196","720","446","j","true","img/S_ambi40.png","三角","prac_simultaneous",""
"","","","","","html-keyboard-response","348","605735","0.0-11.0-0.0-1.23","null","<span style='color:GreenYellow; font-size: 70px;'>正确! </span>","null","","","","","","","","","","","","","","","","","","","","","","","feedback_test"
"","","","","","psychophysics","349","607341","0.0-11.0-0.0-0.24","503","","f","","","","","","","","","","","","","key","f","16.66875789473691","720","446","f","true","img/T_ambi40.png","三角","prac_simultaneous",""
"","","","","","html-keyboard-response","350","607646","0.0-11.0-0.0-1.24","null","<span style='color:GreenYellow; font-size: 70px;'>正确! </span>","null","","","","","","","","","","","","","","","","","","","","","","","feedback_test"
"","","","","","psychophysics","351","609233","0.0-11.0-0.0-0.25","485","","f","","","","","","","","","","","","","key","f","16.666000000000196","720","446","f","true","img/T_ambi40.png","三角","prac_simultaneous",""
"","","","","","html-keyboard-response","352","609536","0.0-11.0-0.0-1.25","null","<span style='color:GreenYellow; font-size: 70px;'>正确! </span>","null","","","","","","","","","","","","","","","","","","","","","","","feedback_test"
"","","","","","psychophysics","353","611119","0.0-11.0-0.0-0.26","481","","j","","","","","","","","","","","","","key","j","16.666000000000533","720","446","j","true","img/T_ambi40.png","方形","prac_simultaneous",""
"","","","","","html-keyboard-response","354","611420","0.0-11.0-0.0-1.26","null","<span style='color:GreenYellow; font-size: 70px;'>正确! </span>","null","","","","","","","","","","","","","","","","","","","","","","","feedback_test"
"","","","","","psychophysics","355","612900","0.0-11.0-0.0-0.27","377","","f","","","","","","","","","","","","","key","f","16.666000000000086","720","446","j","false","img/C_ambi40.png","方形","prac_simultaneous",""
"","","","","","html-keyboard-response","356","613207","0.0-11.0-0.0-1.27","null","<span style='color:red; font-size: 70px;'>错误! </span>","null","","","","","","","","","","","","","","","","","","","","","","","feedback_test"
"","","","","","psychophysics","357","615057","0.0-11.0-0.0-0.28","749","","f","","","","","","","","","","","","","key","f","16.666000000000086","720","446","j","false","img/C_ambi40.png","三角","prac_simultaneous",""
"","","","","","html-keyboard-response","358","615361","0.0-11.0-0.0-1.28","null","<span style='color:red; font-size: 70px;'>错误! </span>","null","","","","","","","","","","","","","","","","","","","","","","","feedback_test"
"","","","","","psychophysics","359","617103","0.0-11.0-0.0-0.29","639","","j","","","","","","","","","","","","","key","j","16.666000000000796","720","446","j","true","img/S_ambi40.png","圆形","prac_simultaneous",""
"","","","","","html-keyboard-response","360","617404","0.0-11.0-0.0-1.29","null","<span style='color:GreenYellow; font-size: 70px;'>正确! </span>","null","","","","","","","","","","","","","","","","","","","","","","","feedback_test"
"","","","","","psychophysics","361","619105","0.0-11.0-0.0-0.30","598","","f","","","","","","","","","","","","","key","f","16.665999999999457","720","446","f","true","img/C_ambi40.png","圆形","prac_simultaneous",""
"","","","","","html-keyboard-response","362","619408","0.0-11.0-0.0-1.30","null","<span style='color:GreenYellow; font-size: 70px;'>正确! </span>","null","","","","","","","","","","","","","","","","","","","","","","","feedback_test"
"","","","","","psychophysics","363","621310","0.0-11.0-0.0-0.31","798","","j","","","","","","","","","","","","","key","j","16.66599999999924","720","446","f","false","img/C_ambi40.png","圆形","prac_simultaneous",""
"","","","","","html-keyboard-response","364","621616","0.0-11.0-0.0-1.31","null","<span style='color:red; font-size: 70px;'>错误! </span>","null","","","","","","","","","","","","","","","","","","","","","","","feedback_test"
"","","","","","psychophysics","365","623297","0.0-11.0-0.0-0.32","580","","j","","","","","","","","","","","","","key","j","16.666000000000086","720","446","j","true","img/S_ambi40.png","三角","prac_simultaneous",""
"","","","","","html-keyboard-response","366","623600","0.0-11.0-0.0-1.32","null","<span style='color:GreenYellow; font-size: 70px;'>正确! </span>","null","","","","","","","","","","","","","","","","","","","","","","","feedback_test"
"","","","","","psychophysics","367","625522","0.0-11.0-0.0-0.33","820","","f","","","","","","","","","","","","","key","f","16.665999999999993","720","446","f","true","img/S_ambi40.png","方形","prac_simultaneous",""
"","","","","","html-keyboard-response","368","625828","0.0-11.0-0.0-1.33","null","<span style='color:GreenYellow; font-size: 70px;'>正确! </span>","null","","","","","","","","","","","","","","","","","","","","","","","feedback_test"
"","","","","","psychophysics","369","627501","0.0-11.0-0.0-0.34","570","","j","","","","","","","","","","","","","key","j","16.671260000000476","720","446","j","true","img/T_ambi40.png","圆形","prac_simultaneous",""
"","","","","","html-keyboard-response","370","627808","0.0-11.0-0.0-1.34","null","<span style='color:GreenYellow; font-size: 70px;'>正确! </span>","null","","","","","","","","","","","","","","","","","","","","","","","feedback_test"
"","","","","","psychophysics","371","629435","0.0-11.0-0.0-0.35","525","","f","","","","","","","","","","","","","key","f","16.66599999999954","720","446","f","true","img/S_ambi40.png","方形","prac_simultaneous",""
"","","","","","html-keyboard-response","372","629741","0.0-11.0-0.0-1.35","null","<span style='color:GreenYellow; font-size: 70px;'>正确! </span>","null","","","","","","","","","","","","","","","","","","","","","","","feedback_test"
"","","","","","psychophysics","373","631459","0.0-11.0-0.0-0.36","614","","j","","","","","","","","","","","","","key","j","16.66599999999915","720","446","j","true","img/T_ambi40.png","方形","prac_simultaneous",""
"","","","","","html-keyboard-response","374","631762","0.0-11.0-0.0-1.36","null","<span style='color:GreenYellow; font-size: 70px;'>正确! </span>","null","","","","","","","","","","","","","","","","","","","","","","","feedback_test"
"","","","","","psychophysics","375","633464","0.0-11.0-0.0-0.37","600","","f","","","","","","","","","","","","","key","f","16.666000000000608","720","446","f","true","img/C_ambi40.png","圆形","prac_simultaneous",""
"","","","","","html-keyboard-response","376","633769","0.0-11.0-0.0-1.37","null","<span style='color:GreenYellow; font-size: 70px;'>正确! </span>","null","","","","","","","","","","","","","","","","","","","","","","","feedback_test"
"","","","","","psychophysics","377","635783","0.0-11.0-0.0-0.38","913","","j","","","","","","","","","","","","","key","j","16.66600000000035","720","446","f","false","img/S_ambi40.png","方形","prac_simultaneous",""
"","","","","","html-keyboard-response","378","636084","0.0-11.0-0.0-1.38","null","<span style='color:red; font-size: 70px;'>错误! </span>","null","","","","","","","","","","","","","","","","","","","","","","","feedback_test"
"","","","","","psychophysics","379","637919","0.0-11.0-0.0-0.39","734","","f","","","","","","","","","","","","","key","f","16.668458715596007","720","446","f","true","img/C_ambi40.png","圆形","prac_simultaneous",""
"","","","","","html-keyboard-response","380","638225","0.0-11.0-0.0-1.39","null","<span style='color:GreenYellow; font-size: 70px;'>正确! </span>","null","","","","","","","","","","","","","","","","","","","","","","","feedback_test"
"","","","","","psychophysics","381","640120","0.0-11.0-0.0-0.40","792","","f","","","","","","","","","","","","","key","f","16.66599999999924","720","446","f","true","img/T_ambi40.png","三角","prac_simultaneous",""
"","","","","","html-keyboard-response","382","640421","0.0-11.0-0.0-1.40","null","<span style='color:GreenYellow; font-size: 70px;'>正确! </span>","null","","","","","","","","","","","","","","","","","","","","","","","feedback_test"
"","","","","","psychophysics","383","642101","0.0-11.0-0.0-0.41","578","","f","","","","","","","","","","","","","key","f","16.665999999999766","720","446","f","true","img/T_ambi40.png","三角","prac_simultaneous",""
"","","","","","html-keyboard-response","384","642405","0.0-11.0-0.0-1.41","null","<span style='color:GreenYellow; font-size: 70px;'>正确! </span>","null","","","","","","","","","","","","","","","","","","","","","","","feedback_test"
"","","","","","psychophysics","385","644169","0.0-11.0-0.0-0.42","662","","j","","","","","","","","","","","","","key","j","16.66599999999938","720","446","j","true","img/S_ambi40.png","圆形","prac_simultaneous",""
"","","","","","html-keyboard-response","386","644475","0.0-11.0-0.0-1.42","null","<span style='color:GreenYellow; font-size: 70px;'>正确! </span>","null","","","","","","","","","","","","","","","","","","","","","","","feedback_test"
"","","","","","psychophysics","387","646309","0.0-11.0-0.0-0.43","731","","f","","","","","","","","","","","","","key","f","16.665999999999308","720","446","j","false","img/C_ambi40.png","三角","prac_simultaneous",""
"","","","","","html-keyboard-response","388","646615","0.0-11.0-0.0-1.43","null","<span style='color:red; font-size: 70px;'>错误! </span>","null","","","","","","","","","","","","","","","","","","","","","","","feedback_test"
"","","","","","psychophysics","389","648403","0.0-11.0-0.0-0.44","687","","f","","","","","","","","","","","","","key","f","16.666000000000185","720","446","j","false","img/S_ambi40.png","三角","prac_simultaneous",""
"","","","","","html-keyboard-response","390","648708","0.0-11.0-0.0-1.44","null","<span style='color:red; font-size: 70px;'>错误! </span>","null","","","","","","","","","","","","","","","","","","","","","","","feedback_test"
"","","","","","psychophysics","391","650494","0.0-11.0-0.0-0.45","683","","j","","","","","","","","","","","","","key","j","16.666000000000185","720","446","j","true","img/T_ambi40.png","圆形","prac_simultaneous",""
"","","","","","html-keyboard-response","392","650797","0.0-11.0-0.0-1.45","null","<span style='color:GreenYellow; font-size: 70px;'>正确! </span>","null","","","","","","","","","","","","","","","","","","","","","","","feedback_test"
"","","","","","psychophysics","393","652563","0.0-11.0-0.0-0.46","665","","f","","","","","","","","","","","","","key","f","16.666000000000487","720","446","f","true","img/S_ambi40.png","方形","prac_simultaneous",""
"","","","","","html-keyboard-response","394","652865","0.0-11.0-0.0-1.46","null","<span style='color:GreenYellow; font-size: 70px;'>正确! </span>","null","","","","","","","","","","","","","","","","","","","","","","","feedback_test"
"","","","","","psychophysics","395","654476","0.0-11.0-0.0-0.47","510","","j","","","","","","","","","","","","","key","j","16.666000000000196","720","446","j","true","img/C_ambi40.png","方形","prac_simultaneous",""
"","","","","","html-keyboard-response","396","654781","0.0-11.0-0.0-1.47","null","<span style='color:GreenYellow; font-size: 70px;'>正确! </span>","null","","","","","","","","","","","","","","","","","","","","","","","feedback_test"
"","","","","","psychophysics","397","656501","0.0-11.0-0.0-0.48","617","","f","","","","","","","","","","","","","key","f","16.671137254902014","720","446","f","true","img/C_ambi40.png","圆形","prac_simultaneous",""
"","","","","","html-keyboard-response","398","656810","0.0-11.0-0.0-1.48","null","<span style='color:GreenYellow; font-size: 70px;'>正确! </span>","null","","","","","","","","","","","","","","","","","","","","","","","feedback_test"
"","","","","","psychophysics","399","658436","0.0-11.0-0.0-0.49","522","","j","","","","","","","","","","","","","key","j","16.66600000000074","720","446","j","true","img/T_ambi40.png","方形","prac_simultaneous",""
"","","","","","html-keyboard-response","400","658742","0.0-11.0-0.0-1.49","null","<span style='color:GreenYellow; font-size: 70px;'>正确! </span>","null","","","","","","","","","","","","","","","","","","","","","","","feedback_test"
"","","","","","psychophysics","401","660416","0.0-11.0-0.0-0.50","570","","j","","","","","","","","","","","","","key","j","16.665999999999766","720","446","j","true","img/T_ambi40.png","圆形","prac_simultaneous",""
"","","","","","html-keyboard-response","402","660719","0.0-11.0-0.0-1.50","null","<span style='color:GreenYellow; font-size: 70px;'>正确! </span>","null","","","","","","","","","","","","","","","","","","","","","","","feedback_test"
"","","","","","psychophysics","403","662398","0.0-11.0-0.0-0.51","577","","j","","","","","","","","","","","","","key","j","16.665999999999766","720","446","j","true","img/S_ambi40.png","圆形","prac_simultaneous",""
"","","","","","html-keyboard-response","404","662704","0.0-11.0-0.0-1.51","null","<span style='color:GreenYellow; font-size: 70px;'>正确! </span>","null","","","","","","","","","","","","","","","","","","","","","","","feedback_test"
"","","","","","psychophysics","405","664422","0.0-11.0-0.0-0.52","616","","f","","","","","","","","","","","","","key","f","16.66600000000029","720","446","f","true","img/C_ambi40.png","圆形","prac_simultaneous",""
"","","","","","html-keyboard-response","406","664724","0.0-11.0-0.0-1.52","null","<span style='color:GreenYellow; font-size: 70px;'>正确! </span>","null","","","","","","","","","","","","","","","","","","","","","","","feedback_test"
"","","","","","psychophysics","407","666449","0.0-11.0-0.0-0.53","622","","f","","","","","","","","","","","","","key","f","16.665999999999983","720","446","f","true","img/T_ambi40.png","三角","prac_simultaneous",""
"","","","","","html-keyboard-response","408","666753","0.0-11.0-0.0-1.53","null","<span style='color:GreenYellow; font-size: 70px;'>正确! </span>","null","","","","","","","","","","","","","","","","","","","","","","","feedback_test"
"","","","","","psychophysics","409","668423","0.0-11.0-0.0-0.54","568","","f","","","","","","","","","","","","","key","f","16.66599999999891","720","446","f","true","img/T_ambi40.png","三角","prac_simultaneous",""
"","","","","","html-keyboard-response","410","668729","0.0-11.0-0.0-1.54","null","<span style='color:GreenYellow; font-size: 70px;'>正确! </span>","null","","","","","","","","","","","","","","","","","","","","","","","feedback_test"
"","","","","","psychophysics","411","670586","0.0-11.0-0.0-0.55","756","","j","","","","","","","","","","","","","key","j","16.666000000000086","720","446","j","true","img/C_ambi40.png","方形","prac_simultaneous",""
"","","","","","html-keyboard-response","412","670888","0.0-11.0-0.0-1.55","null","<span style='color:GreenYellow; font-size: 70px;'>正确! </span>","null","","","","","","","","","","","","","","","","","","","","","","","feedback_test"
"","","","","","psychophysics","413","672610","0.0-11.0-0.0-0.56","619","","j","","","","","","","","","","","","","key","j","16.66600000000029","720","446","j","true","img/C_ambi40.png","三角","prac_simultaneous",""
"","","","","","html-keyboard-response","414","672912","0.0-11.0-0.0-1.56","null","<span style='color:GreenYellow; font-size: 70px;'>正确! </span>","null","","","","","","","","","","","","","","","","","","","","","","","feedback_test"
"","","","","","psychophysics","415","674592","0.0-11.0-0.0-0.57","578","","f","","","","","","","","","","","","","key","f","16.666000000000086","720","446","f","true","img/S_ambi40.png","方形","prac_simultaneous",""
"","","","","","html-keyboard-response","416","674894","0.0-11.0-0.0-1.57","null","<span style='color:GreenYellow; font-size: 70px;'>正确! </span>","null","","","","","","","","","","","","","","","","","","","","","","","feedback_test"
"","","","","","psychophysics","417","676662","0.0-11.0-0.0-0.58","666","","j","","","","","","","","","","","","","key","j","16.670980952380756","720","446","j","true","img/S_ambi40.png","三角","prac_simultaneous",""
"","","","","","html-keyboard-response","418","676965","0.0-11.0-0.0-1.58","null","<span style='color:GreenYellow; font-size: 70px;'>正确! </span>","null","","","","","","","","","","","","","","","","","","","","","","","feedback_test"
"","","","","","psychophysics","419","678687","0.0-11.0-0.0-0.59","621","","j","","","","","","","","","","","","","key","j","16.66600000000029","720","446","f","false","img/S_ambi40.png","方形","prac_simultaneous",""
"","","","","","html-keyboard-response","420","678990","0.0-11.0-0.0-1.59","null","<span style='color:red; font-size: 70px;'>错误! </span>","null","","","","","","","","","","","","","","","","","","","","","","","feedback_test"
"","","","","","psychophysics","421","680646","0.0-11.0-0.0-0.60","551","","f","","","","","","","","","","","","","key","f","16.665999999999222","720","446","f","true","img/T_ambi40.png","三角","prac_simultaneous",""
"","","","","","html-keyboard-response","422","680948","0.0-11.0-0.0-1.60","null","<span style='color:GreenYellow; font-size: 70px;'>正确! </span>","null","","","","","","","","","","","","","","","","","","","","","","","feedback_test"
"","","","","","psychophysics","423","682737","0.0-11.0-0.0-0.61","688","","f","","","","","","","","","","","","","key","f","16.666000000000185","720","446","f","true","img/C_ambi40.png","圆形","prac_simultaneous",""
"","","","","","html-keyboard-response","424","683040","0.0-11.0-0.0-1.61","null","<span style='color:GreenYellow; font-size: 70px;'>正确! </span>","null","","","","","","","","","","","","","","","","","","","","","","","feedback_test"
"","","","","","psychophysics","425","684829","0.0-11.0-0.0-0.62","687","","f","","","","","","","","","","","","","key","f","16.666000000000185","720","446","f","true","img/S_ambi40.png","方形","prac_simultaneous",""
"","","","","","html-keyboard-response","426","685134","0.0-11.0-0.0-1.62","null","<span style='color:GreenYellow; font-size: 70px;'>正确! </span>","null","","","","","","","","","","","","","","","","","","","","","","","feedback_test"
"","","","","","psychophysics","427","686854","0.0-11.0-0.0-0.63","619","","j","","","","","","","","","","","","","key","j","16.66600000000029","720","446","j","true","img/T_ambi40.png","圆形","prac_simultaneous",""
"","","","","","html-keyboard-response","428","687156","0.0-11.0-0.0-1.63","null","<span style='color:GreenYellow; font-size: 70px;'>正确! </span>","null","","","","","","","","","","","","","","","","","","","","","","","feedback_test"
"","","","","","psychophysics","429","688990","0.0-11.0-0.0-0.64","732","","f","","","","","","","","","","","","","key","f","16.666000000000377","720","446","f","true","img/C_ambi40.png","圆形","prac_simultaneous",""
"","","","","","html-keyboard-response","430","689294","0.0-11.0-0.0-1.64","null","<span style='color:GreenYellow; font-size: 70px;'>正确! </span>","null","","","","","","","","","","","","","","","","","","","","","","","feedback_test"
"","","","","","psychophysics","431","690953","0.0-11.0-0.0-0.65","556","","f","","","","","","","","","","","","","key","f","16.666000000000086","720","446","j","false","img/S_ambi40.png","圆形","prac_simultaneous",""
"","","","","","html-keyboard-response","432","691256","0.0-11.0-0.0-1.65","null","<span style='color:red; font-size: 70px;'>错误! </span>","null","","","","","","","","","","","","","","","","","","","","","","","feedback_test"
"","","","","","psychophysics","433","693040","0.0-11.0-0.0-0.66","682","","j","","","","","","","","","","","","","key","j","16.666000000000185","720","446","j","true","img/C_ambi40.png","三角","prac_simultaneous",""
"","","","","","html-keyboard-response","434","693345","0.0-11.0-0.0-1.66","null","<span style='color:GreenYellow; font-size: 70px;'>正确! </span>","null","","","","","","","","","","","","","","","","","","","","","","","feedback_test"
"","","","","","psychophysics","435","695175","0.0-11.0-0.0-0.67","728","","j","","","","","","","","","","","","","key","j","16.666000000000672","720","446","j","true","img/C_ambi40.png","方形","prac_simultaneous",""
"","","","","","html-keyboard-response","436","695478","0.0-11.0-0.0-1.67","null","<span style='color:GreenYellow; font-size: 70px;'>正确! </span>","null","","","","","","","","","","","","","","","","","","","","","","","feedback_test"
"","","","","","psychophysics","437","697295","0.0-11.0-0.0-0.68","715","","j","","","","","","","","","","","","","key","j","16.670897196261343","720","446","j","true","img/T_ambi40.png","方形","prac_simultaneous",""
"","","","","","html-keyboard-response","438","697598","0.0-11.0-0.0-1.68","null","<span style='color:GreenYellow; font-size: 70px;'>正确! </span>","null","","","","","","","","","","","","","","","","","","","","","","","feedback_test"
"","","","","","psychophysics","439","699407","0.0-11.0-0.0-0.69","707","","j","","","","","","","","","","","","","key","j","16.665999999999887","720","446","j","true","img/S_ambi40.png","三角","prac_simultaneous",""
"","","","","","html-keyboard-response","440","699712","0.0-11.0-0.0-1.69","null","<span style='color:GreenYellow; font-size: 70px;'>正确! </span>","null","","","","","","","","","","","","","","","","","","","","","","","feedback_test"
"","","","","","psychophysics","441","701303","0.0-11.0-0.0-0.70","489","","f","","","","","","","","","","","","","key","f","16.666000000000533","720","446","f","true","img/T_ambi40.png","三角","prac_simultaneous",""
