"success","timeout","failed_images","failed_audio","failed_video","trial_type","trial_index","time_elapsed","internal_node_id","rt","stimulus","response","value","item_width_mm","item_height_mm","item_width_px","px2mm","view_dist_mm","item_width_deg","px2deg","scale_factor","win_width_deg","win_height_deg","view_history","response_type","key_press","avg_frame_time","center_x","center_y","correct_response","correct","Image","word","condition","screen_id"
"true","false","[]","[]","[]","preload","0","13","0.0-0.0","","","","","","","","","","","","","","","","","","","","","","","","","",""
"","","","","","html-keyboard-response","1","2174","0.0-1.0","2160","
     <p>您好，欢迎参加本次实验。</p>
     <p>为充分保障您的权利，请确保您已经知晓并同意《参与实验同意书》以及《数据公开知情同意书》。</p>
     <p>如果您未见过上述内容，请咨询实验员。</p>
     <p>如果您选择继续实验，则表示您已经清楚两份知情同意书的内容并同意。</p>
     <p> <div style = ""color: green""><按任意键至下页></div> </p>
     ","j","","","","","","","","","","","","","","","","","","","","","","",""
"","","","","","html-keyboard-response","2","2398","0.0-2.0","224","
     <p>本实验首先需要您填写一些基本个人信息。</p>
     <p> <div style = ""color: green""><按任意键至下页></div></p>
     ","j","","","","","","","","","","","","","","","","","","","","","","",""
"","","","","","call-function","3","2399","0.0-3.0-0.0","","","","","","","","","","","","","","","","","","","","","","","","","",""
"","","","","","survey-html-form","4","5589","0.0-3.0-1.0","3186","","{""Q0"":""1""}","","","","","","","","","","","","","","","","","","","","","","",""
"","","","","","html-button-response","5","6261","0.0-3.0-2.0","668","<p style = 'color : white'>您的性别</p>","0","","","","","","","","","","","","","","","","","","","","","","",""
"","","","","","survey-html-form","6","7771","0.0-3.0-3.0","1507","","{""Q0"":""2001""}","","","","","","","","","","","","","","","","","","","","","","",""
"","","","","","survey-html-form","7","9390","0.0-3.0-4.0","1616","","{""Q0"":""7""}","","","","","","","","","","","","","","","","","","","","","","",""
"","","","","","virtual-chinrest","8","26437","0.0-4.0","17044","","","","85.6","53.98","466.6858371438997","5.454176776400588","524.3","9.333716742877993","50","0.8763925695775666","28.8","15.28","","","","","","","","","","","",""
"true","","","","","fullscreen","9","28408","0.0-5.0","","","","","","","","","","","","","","","","","","","","","","","","","",""
"","","","","","instructions","10","43237","0.0-6.0","14827","","","","","","","","","","","","","","[{""page_index"":0,""viewing_time"":913},{""page_index"":1,""viewing_time"":4442},{""page_index"":2,""viewing_time"":1416},{""page_index"":1,""viewing_time"":3524},{""page_index"":2,""viewing_time"":1001},{""page_index"":3,""viewing_time"":3530}]","","","","","","","","","","",""
"","","","","","psychophysics","11","45219","0.0-7.0-0.0-0.0","827","","f","","","","","","","","","","","","","key","f","16.66599999999997","720","446","j","false","img/T_ambi40.png","常人","prac_image_first",""
"","","","","","html-keyboard-response","12","45522","0.0-7.0-0.0-1.0","null","<span style='color:red; font-size: 70px;'>错误! </span>","null","","","","","","","","","","","","","","","","","","","","","","","feedback_test"
"","","","","","psychophysics","13","47713","0.0-7.0-0.0-0.1","1038","","f","","","","","","","","","","","","","key","f","16.666000000000015","720","446","f","true","img/S_ambi40.png","常人","prac_image_first",""
"","","","","","html-keyboard-response","14","48015","0.0-7.0-0.0-1.1","null","<span style='color:GreenYellow; font-size: 70px;'>正确! </span>","null","","","","","","","","","","","","","","","","","","","","","","","feedback_test"
"","","","","","psychophysics","15","50670","0.0-7.0-0.0-0.2","null","","null","","","","","","","","","","","","","key","null","16.665999999999986","720","446","f","false","img/S_ambi40.png","好人","prac_image_first",""
"","","","","","html-keyboard-response","16","50976","0.0-7.0-0.0-1.2","null","<span class='add_' style='color:yellow; font-size: 70px;'> 太慢! </span>","null","","","","","","","","","","","","","","","","","","","","","","","feedback_test"
"","","","","","psychophysics","17","53630","0.0-7.0-0.0-0.3","null","","null","","","","","","","","","","","","","key","null","16.666000000000018","720","446","f","false","img/C_ambi40.png","坏人","prac_image_first",""
"","","","","","html-keyboard-response","18","53937","0.0-7.0-0.0-1.3","null","<span class='add_' style='color:yellow; font-size: 70px;'> 太慢! </span>","null","","","","","","","","","","","","","","","","","","","","","","","feedback_test"
"","","","","","psychophysics","19","56594","0.0-7.0-0.0-0.4","null","","null","","","","","","","","","","","","","key","null","16.665999999999972","720","446","j","false","img/S_ambi40.png","坏人","prac_image_first",""
"","","","","","html-keyboard-response","20","56898","0.0-7.0-0.0-1.4","null","<span class='add_' style='color:yellow; font-size: 70px;'> 太慢! </span>","null","","","","","","","","","","","","","","","","","","","","","","","feedback_test"
"","","","","","psychophysics","21","59553","0.0-7.0-0.0-0.5","null","","null","","","","","","","","","","","","","key","null","16.669295597484265","720","446","j","false","img/C_ambi40.png","好人","prac_image_first",""
"","","","","","html-keyboard-response","22","59855","0.0-7.0-0.0-1.5","null","<span class='add_' style='color:yellow; font-size: 70px;'> 太慢! </span>","null","","","","","","","","","","","","","","","","","","","","","","","feedback_test"
"","","","","","psychophysics","23","62508","0.0-7.0-0.0-0.6","null","","null","","","","","","","","","","","","","key","null","16.666000000000018","720","446","f","false","img/T_ambi40.png","坏人","prac_image_first",""
"","","","","","html-keyboard-response","24","62809","0.0-7.0-0.0-1.6","null","<span class='add_' style='color:yellow; font-size: 70px;'> 太慢! </span>","null","","","","","","","","","","","","","","","","","","","","","","","feedback_test"
"","","","","","psychophysics","25","65469","0.0-7.0-0.0-0.7","null","","null","","","","","","","","","","","","","key","null","16.665999999999972","720","446","j","false","img/T_ambi40.png","常人","prac_image_first",""
"","","","","","html-keyboard-response","26","65772","0.0-7.0-0.0-1.7","null","<span class='add_' style='color:yellow; font-size: 70px;'> 太慢! </span>","null","","","","","","","","","","","","","","","","","","","","","","","feedback_test"
"","","","","","psychophysics","27","68425","0.0-7.0-0.0-0.8","null","","null","","","","","","","","","","","","","key","null","16.666000000000018","720","446","f","false","img/T_ambi40.png","好人","prac_image_first",""
"","","","","","html-keyboard-response","28","68729","0.0-7.0-0.0-1.8","null","<span class='add_' style='color:yellow; font-size: 70px;'> 太慢! </span>","null","","","","","","","","","","","","","","","","","","","","","","","feedback_test"
"","","","","","psychophysics","29","71383","0.0-7.0-0.0-0.9","null","","null","","","","","","","","","","","","","key","null","16.667687898089202","720","446","f","false","img/C_ambi40.png","常人","prac_image_first",""
"","","","","","html-keyboard-response","30","71686","0.0-7.0-0.0-1.9","null","<span class='add_' style='color:yellow; font-size: 70px;'> 太慢! </span>","null","","","","","","","","","","","","","","","","","","","","","","","feedback_test"
"","","","","","psychophysics","31","74345","0.0-7.0-0.0-0.10","null","","null","","","","","","","","","","","","","key","null","16.666000000000018","720","446","j","false","img/C_ambi40.png","好人","prac_image_first",""
"","","","","","html-keyboard-response","32","74649","0.0-7.0-0.0-1.10","null","<span class='add_' style='color:yellow; font-size: 70px;'> 太慢! </span>","null","","","","","","","","","","","","","","","","","","","","","","","feedback_test"
"","","","","","psychophysics","33","77301","0.0-7.0-0.0-0.11","null","","null","","","","","","","","","","","","","key","null","16.66599999999994","720","446","j","false","img/S_ambi40.png","坏人","prac_image_first",""
"","","","","","html-keyboard-response","34","77607","0.0-7.0-0.0-1.11","null","<span class='add_' style='color:yellow; font-size: 70px;'> 太慢! </span>","null","","","","","","","","","","","","","","","","","","","","","","","feedback_test"
"","","","","","psychophysics","35","80262","0.0-7.0-0.0-0.12","null","","null","","","","","","","","","","","","","key","null","16.666000000000018","720","446","f","false","img/T_ambi40.png","坏人","prac_image_first",""
"","","","","","html-keyboard-response","36","80564","0.0-7.0-0.0-1.12","null","<span class='add_' style='color:yellow; font-size: 70px;'> 太慢! </span>","null","","","","","","","","","","","","","","","","","","","","","","","feedback_test"
"","","","","","psychophysics","37","83222","0.0-7.0-0.0-0.13","null","","null","","","","","","","","","","","","","key","null","16.666","720","446","j","false","img/T_ambi40.png","常人","prac_image_first",""
"","","","","","html-keyboard-response","38","83523","0.0-7.0-0.0-1.13","null","<span class='add_' style='color:yellow; font-size: 70px;'> 太慢! </span>","null","","","","","","","","","","","","","","","","","","","","","","","feedback_test"
"","","","","","psychophysics","39","86176","0.0-7.0-0.0-0.14","null","","null","","","","","","","","","","","","","key","null","16.666000000000018","720","446","j","false","img/S_ambi40.png","坏人","prac_image_first",""
"","","","","","html-keyboard-response","40","86478","0.0-7.0-0.0-1.14","null","<span class='add_' style='color:yellow; font-size: 70px;'> 太慢! </span>","null","","","","","","","","","","","","","","","","","","","","","","","feedback_test"
"","","","","","psychophysics","41","89131","0.0-7.0-0.0-0.15","null","","null","","","","","","","","","","","","","key","null","16.66931645569616","720","446","f","false","img/S_ambi40.png","常人","prac_image_first",""
"","","","","","html-keyboard-response","42","89433","0.0-7.0-0.0-1.15","null","<span class='add_' style='color:yellow; font-size: 70px;'> 太慢! </span>","null","","","","","","","","","","","","","","","","","","","","","","","feedback_test"
"","","","","","psychophysics","43","92092","0.0-7.0-0.0-0.16","null","","null","","","","","","","","","","","","","key","null","16.665999999999926","720","446","j","false","img/C_ambi40.png","好人","prac_image_first",""
"","","","","","html-keyboard-response","44","92394","0.0-7.0-0.0-1.16","null","<span class='add_' style='color:yellow; font-size: 70px;'> 太慢! </span>","null","","","","","","","","","","","","","","","","","","","","","","","feedback_test"
"","","","","","psychophysics","45","95048","0.0-7.0-0.0-0.17","null","","null","","","","","","","","","","","","","key","null","16.666000000000018","720","446","f","false","img/T_ambi40.png","好人","prac_image_first",""
"","","","","","html-keyboard-response","46","95352","0.0-7.0-0.0-1.17","null","<span class='add_' style='color:yellow; font-size: 70px;'> 太慢! </span>","null","","","","","","","","","","","","","","","","","","","","","","","feedback_test"
"","","","","","psychophysics","47","98006","0.0-7.0-0.0-0.18","null","","null","","","","","","","","","","","","","key","null","16.666000000000018","720","446","f","false","img/C_ambi40.png","坏人","prac_image_first",""
"","","","","","html-keyboard-response","48","98307","0.0-7.0-0.0-1.18","null","<span class='add_' style='color:yellow; font-size: 70px;'> 太慢! </span>","null","","","","","","","","","","","","","","","","","","","","","","","feedback_test"
"","","","","","psychophysics","49","100961","0.0-7.0-0.0-0.19","null","","null","","","","","","","","","","","","","key","null","16.666000000000018","720","446","j","false","img/C_ambi40.png","好人","prac_image_first",""
"","","","","","html-keyboard-response","50","101262","0.0-7.0-0.0-1.19","null","<span class='add_' style='color:yellow; font-size: 70px;'> 太慢! </span>","null","","","","","","","","","","","","","","","","","","","","","","","feedback_test"
"","","","","","psychophysics","51","103917","0.0-7.0-0.0-0.20","null","","null","","","","","","","","","","","","","key","null","16.666000000000018","720","446","f","false","img/C_ambi40.png","常人","prac_image_first",""
"","","","","","html-keyboard-response","52","104220","0.0-7.0-0.0-1.20","null","<span class='add_' style='color:yellow; font-size: 70px;'> 太慢! </span>","null","","","","","","","","","","","","","","","","","","","","","","","feedback_test"
"","","","","","psychophysics","53","106871","0.0-7.0-0.0-0.21","null","","null","","","","","","","","","","","","","key","null","16.665999999999926","720","446","j","false","img/S_ambi40.png","坏人","prac_image_first",""
"","","","","","html-keyboard-response","54","107172","0.0-7.0-0.0-1.21","null","<span class='add_' style='color:yellow; font-size: 70px;'> 太慢! </span>","null","","","","","","","","","","","","","","","","","","","","","","","feedback_test"
"","","","","","psychophysics","55","109826","0.0-7.0-0.0-0.22","null","","null","","","","","","","","","","","","","key","null","16.66931645569616","720","446","f","false","img/S_ambi40.png","好人","prac_image_first",""
"","","","","","html-keyboard-response","56","110129","0.0-7.0-0.0-1.22","null","<span class='add_' style='color:yellow; font-size: 70px;'> 太慢! </span>","null","","","","","","","","","","","","","","","","","","","","","","","feedback_test"
"","","","","","psychophysics","57","112783","0.0-7.0-0.0-0.23","null","","null","","","","","","","","","","","","","key","null","16.66599999999994","720","446","j","false","img/T_ambi40.png","常人","prac_image_first",""
"","","","","","html-keyboard-response","58","113085","0.0-7.0-0.0-1.23","null","<span class='add_' style='color:yellow; font-size: 70px;'> 太慢! </span>","null","","","","","","","","","","","","","","","","","","","","","","","feedback_test"
"","","","","","html-keyboard-response","59","121435","0.0-7.0-1.0-0.0","8348","<style>.context{color:white; font-size: 35px; line-height:40px}</style>                              <div><p class='context'>您正确回答了4% 的试次。</p><p class='context'>您的平均反应时为1038毫秒。</p>","f","","","","","","","","","","","","","","","","","","","","","","",""
"","","","","","instructions","60","125441","0.0-7.0-1.0-1.0","4001","","","","","","","","","","","","","","[{""page_index"":0,""viewing_time"":1246},{""page_index"":1,""viewing_time"":1721},{""page_index"":2,""viewing_time"":1034}]","","","","","","","","","","",""
"","","","","","psychophysics","61","127105","0.0-7.1-0.1-0.24","510","","f","","","","","","","","","","","","","key","f","16.665999999999936","720","446","f","true","img/C_ambi40.png","坏人","prac_image_first",""
"","","","","","html-keyboard-response","62","127407","0.0-7.1-0.1-1.24","null","<span style='color:GreenYellow; font-size: 70px;'>正确! </span>","null","","","","","","","","","","","","","","","","","","","","","","","feedback_test"
"","","","","","psychophysics","63","129441","0.0-7.1-0.1-0.25","882","","j","","","","","","","","","","","","","key","j","16.665999999999965","720","446","j","true","img/S_ambi40.png","坏人","prac_image_first",""
"","","","","","html-keyboard-response","64","129744","0.0-7.1-0.1-1.25","null","<span style='color:GreenYellow; font-size: 70px;'>正确! </span>","null","","","","","","","","","","","","","","","","","","","","","","","feedback_test"
"","","","","","psychophysics","65","131843","0.0-7.1-0.1-0.26","946","","f","","","","","","","","","","","","","key","f","16.666","720","446","f","true","img/C_ambi40.png","常人","prac_image_first",""
"","","","","","html-keyboard-response","66","132145","0.0-7.1-0.1-1.26","null","<span style='color:GreenYellow; font-size: 70px;'>正确! </span>","null","","","","","","","","","","","","","","","","","","","","","","","feedback_test"
"","","","","","psychophysics","67","133811","0.0-7.1-0.1-0.27","512","","j","","","","","","","","","","","","","key","j","16.66600000000011","720","446","j","true","img/T_ambi40.png","常人","prac_image_first",""
"","","","","","html-keyboard-response","68","134114","0.0-7.1-0.1-1.27","null","<span style='color:GreenYellow; font-size: 70px;'>正确! </span>","null","","","","","","","","","","","","","","","","","","","","","","","feedback_test"
"","","","","","psychophysics","69","136192","0.0-7.1-0.1-0.28","927","","j","","","","","","","","","","","","","key","j","16.66600000000002","720","446","j","true","img/C_ambi40.png","好人","prac_image_first",""
"","","","","","html-keyboard-response","70","136495","0.0-7.1-0.1-1.28","null","<span style='color:GreenYellow; font-size: 70px;'>正确! </span>","null","","","","","","","","","","","","","","","","","","","","","","","feedback_test"
"","","","","","psychophysics","71","138275","0.0-7.1-0.1-0.29","627","","f","","","","","","","","","","","","","key","f","16.665999999999933","720","446","j","false","img/S_ambi40.png","坏人","prac_image_first",""
"","","","","","html-keyboard-response","72","138578","0.0-7.1-0.1-1.29","null","<span style='color:red; font-size: 70px;'>错误! </span>","null","","","","","","","","","","","","","","","","","","","","","","","feedback_test"
"","","","","","psychophysics","73","140543","0.0-7.1-0.1-0.30","811","","j","","","","","","","","","","","","","key","j","16.665999999999926","720","446","f","false","img/S_ambi40.png","好人","prac_image_first",""
"","","","","","html-keyboard-response","74","140844","0.0-7.1-0.1-1.30","null","<span style='color:red; font-size: 70px;'>错误! </span>","null","","","","","","","","","","","","","","","","","","","","","","","feedback_test"
"","","","","","psychophysics","75","142912","0.0-7.1-0.1-0.31","915","","f","","","","","","","","","","","","","key","f","16.67026016260147","720","446","f","true","img/T_ambi40.png","好人","prac_image_first",""
"","","","","","html-keyboard-response","76","143213","0.0-7.1-0.1-1.31","null","<span style='color:GreenYellow; font-size: 70px;'>正确! </span>","null","","","","","","","","","","","","","","","","","","","","","","","feedback_test"
"","","","","","psychophysics","77","145162","0.0-7.1-0.1-0.32","798","","f","","","","","","","","","","","","","key","f","16.665999999999947","720","446","f","true","img/S_ambi40.png","常人","prac_image_first",""
"","","","","","html-keyboard-response","78","145463","0.0-7.1-0.1-1.32","null","<span style='color:GreenYellow; font-size: 70px;'>正确! </span>","null","","","","","","","","","","","","","","","","","","","","","","","feedback_test"
"","","","","","psychophysics","79","147008","0.0-7.1-0.1-0.33","392","","j","","","","","","","","","","","","","key","j","16.66599999999997","720","446","j","true","img/T_ambi40.png","常人","prac_image_first",""
"","","","","","html-keyboard-response","80","147310","0.0-7.1-0.1-1.33","null","<span style='color:GreenYellow; font-size: 70px;'>正确! </span>","null","","","","","","","","","","","","","","","","","","","","","","","feedback_test"
"","","","","","psychophysics","81","149709","0.0-7.1-0.1-0.34","1246","","f","","","","","","","","","","","","","key","f","16.66599999999988","720","446","f","true","img/T_ambi40.png","坏人","prac_image_first",""
"","","","","","html-keyboard-response","82","150013","0.0-7.1-0.1-1.34","null","<span style='color:GreenYellow; font-size: 70px;'>正确! </span>","null","","","","","","","","","","","","","","","","","","","","","","","feedback_test"
"","","","","","psychophysics","83","151674","0.0-7.1-0.1-0.35","509","","j","","","","","","","","","","","","","key","j","16.666000000000086","720","446","j","true","img/C_ambi40.png","好人","prac_image_first",""
"","","","","","html-keyboard-response","84","151978","0.0-7.1-0.1-1.35","null","<span style='color:GreenYellow; font-size: 70px;'>正确! </span>","null","","","","","","","","","","","","","","","","","","","","","","","feedback_test"
"","","","","","psychophysics","85","153820","0.0-7.1-0.1-0.36","687","","f","","","","","","","","","","","","","key","f","16.666000000000086","720","446","j","false","img/C_ambi40.png","好人","prac_image_first",""
"","","","","","html-keyboard-response","86","154121","0.0-7.1-0.1-1.36","null","<span style='color:red; font-size: 70px;'>错误! </span>","null","","","","","","","","","","","","","","","","","","","","","","","feedback_test"
"","","","","","psychophysics","87","155617","0.0-7.1-0.1-0.37","345","","j","","","","","","","","","","","","","key","j","16.666000000000054","720","446","j","true","img/C_ambi40.png","好人","prac_image_first",""
"","","","","","html-keyboard-response","88","155920","0.0-7.1-0.1-1.37","null","<span style='color:GreenYellow; font-size: 70px;'>正确! </span>","null","","","","","","","","","","","","","","","","","","","","","","","feedback_test"
"","","","","","psychophysics","89","157643","0.0-7.1-0.1-0.38","571","","j","","","","","","","","","","","","","key","j","16.666000000000007","720","446","f","false","img/T_ambi40.png","好人","prac_image_first",""
"","","","","","html-keyboard-response","90","157945","0.0-7.1-0.1-1.38","null","<span style='color:red; font-size: 70px;'>错误! </span>","null","","","","","","","","","","","","","","","","","","","","","","","feedback_test"
"","","","","","psychophysics","91","159759","0.0-7.1-0.1-0.39","661","","j","","","","","","","","","","","","","key","j","16.665999999999887","720","446","j","true","img/S_ambi40.png","坏人","prac_image_first",""
"","","","","","html-keyboard-response","92","160064","0.0-7.1-0.1-1.39","null","<span style='color:GreenYellow; font-size: 70px;'>正确! </span>","null","","","","","","","","","","","","","","","","","","","","","","","feedback_test"
"","","","","","psychophysics","93","161888","0.0-7.1-0.1-0.40","672","","f","","","","","","","","","","","","","key","f","16.670842592592603","720","446","f","true","img/C_ambi40.png","常人","prac_image_first",""
"","","","","","html-keyboard-response","94","162193","0.0-7.1-0.1-1.40","null","<span style='color:GreenYellow; font-size: 70px;'>正确! </span>","null","","","","","","","","","","","","","","","","","","","","","","","feedback_test"
"","","","","","psychophysics","95","164407","0.0-7.1-0.1-0.41","1063","","f","","","","","","","","","","","","","key","f","16.665999999999865","720","446","f","true","img/S_ambi40.png","常人","prac_image_first",""
"","","","","","html-keyboard-response","96","164713","0.0-7.1-0.1-1.41","null","<span style='color:GreenYellow; font-size: 70px;'>正确! </span>","null","","","","","","","","","","","","","","","","","","","","","","","feedback_test"
"","","","","","psychophysics","97","166627","0.0-7.1-0.1-0.42","760","","j","","","","","","","","","","","","","key","j","16.665999999999993","720","446","j","true","img/S_ambi40.png","坏人","prac_image_first",""
"","","","","","html-keyboard-response","98","166930","0.0-7.1-0.1-1.42","null","<span style='color:GreenYellow; font-size: 70px;'>正确! </span>","null","","","","","","","","","","","","","","","","","","","","","","","feedback_test"
"","","","","","psychophysics","99","169086","0.0-7.1-0.1-0.43","1006","","f","","","","","","","","","","","","","key","f","16.66599999999994","720","446","f","true","img/T_ambi40.png","坏人","prac_image_first",""
"","","","","","html-keyboard-response","100","169391","0.0-7.1-0.1-1.43","null","<span style='color:GreenYellow; font-size: 70px;'>正确! </span>","null","","","","","","","","","","","","","","","","","","","","","","","feedback_test"
"","","","","","psychophysics","101","171245","0.0-7.1-0.1-0.44","700","","f","","","","","","","","","","","","","key","f","16.666000000000086","720","446","f","true","img/C_ambi40.png","坏人","prac_image_first",""
"","","","","","html-keyboard-response","102","171548","0.0-7.1-0.1-1.44","null","<span style='color:GreenYellow; font-size: 70px;'>正确! </span>","null","","","","","","","","","","","","","","","","","","","","","","","feedback_test"
"","","","","","psychophysics","103","173286","0.0-7.1-0.1-0.45","586","","j","","","","","","","","","","","","","key","j","16.668563106796338","720","446","j","true","img/T_ambi40.png","常人","prac_image_first",""
"","","","","","html-keyboard-response","104","173592","0.0-7.1-0.1-1.45","null","<span style='color:GreenYellow; font-size: 70px;'>正确! </span>","null","","","","","","","","","","","","","","","","","","","","","","","feedback_test"
"","","","","","psychophysics","105","175076","0.0-7.1-0.1-0.46","331","","f","","","","","","","","","","","","","key","f","16.666000000000086","720","446","f","true","img/S_ambi40.png","好人","prac_image_first",""
"","","","","","html-keyboard-response","106","175379","0.0-7.1-0.1-1.46","null","<span style='color:GreenYellow; font-size: 70px;'>正确! </span>","null","","","","","","","","","","","","","","","","","","","","","","","feedback_test"
"","","","","","psychophysics","107","176873","0.0-7.1-0.1-0.47","341","","j","","","","","","","","","","","","","key","j","16.665999999999755","720","446","j","true","img/T_ambi40.png","常人","prac_image_first",""
"","","","","","html-keyboard-response","108","177177","0.0-7.1-0.1-1.47","null","<span style='color:GreenYellow; font-size: 70px;'>正确! </span>","null","","","","","","","","","","","","","","","","","","","","","","","feedback_test"
"","","","","","html-keyboard-response","109","178420","0.0-8.0","1240","<style>.context{color:white; font-size: 35px; line-height:40px}</style>                              <div><p class='context'>您正确回答了83% 的试次。</p><p class='context'>您的平均反应时为705毫秒。</p><p class='context'>恭喜您完成这一阶段的练习。按任意键进入<span style='color: yellow;'>先文字后图形条件</span>的练习。</p></div>","j","","","","","","","","","","","","","","","","","","","","","","",""
"","","","","","psychophysics","110","180394","0.0-9.0-0.0-0.0","816","","j","","","","","","","","","","","","","key","j","16.665999999999926","720","446","j","true","img/T_ambi40.png","常人","prac_word_first",""
"","","","","","html-keyboard-response","111","180698","0.0-9.0-0.0-1.0","null","<span style='color:GreenYellow; font-size: 70px;'>正确! </span>","null","","","","","","","","","","","","","","","","","","","","","","","feedback_test"
"","","","","","psychophysics","112","183351","0.0-9.0-0.0-0.1","null","","null","","","","","","","","","","","","","key","null","16.666000000000018","720","446","f","false","img/T_ambi40.png","坏人","prac_word_first",""
"","","","","","html-keyboard-response","113","183656","0.0-9.0-0.0-1.1","null","<span class='add_' style='color:yellow; font-size: 70px;'> 太慢! </span>","null","","","","","","","","","","","","","","","","","","","","","","","feedback_test"
"","","","","","psychophysics","114","186316","0.0-9.0-0.0-0.2","null","","null","","","","","","","","","","","","","key","null","16.666000000000018","720","446","f","false","img/S_ambi40.png","好人","prac_word_first",""
"","","","","","html-keyboard-response","115","186623","0.0-9.0-0.0-1.2","null","<span class='add_' style='color:yellow; font-size: 70px;'> 太慢! </span>","null","","","","","","","","","","","","","","","","","","","","","","","feedback_test"
"","","","","","psychophysics","116","189276","0.0-9.0-0.0-0.3","null","","null","","","","","","","","","","","","","key","null","16.666000000000018","720","446","f","false","img/C_ambi40.png","坏人","prac_word_first",""
"","","","","","html-keyboard-response","117","189577","0.0-9.0-0.0-1.3","null","<span class='add_' style='color:yellow; font-size: 70px;'> 太慢! </span>","null","","","","","","","","","","","","","","","","","","","","","","","feedback_test"
"","","","","","psychophysics","118","192230","0.0-9.0-0.0-0.4","null","","null","","","","","","","","","","","","","key","null","16.669337579617714","720","446","j","false","img/S_ambi40.png","坏人","prac_word_first",""
"","","","","","html-keyboard-response","119","192534","0.0-9.0-0.0-1.4","null","<span class='add_' style='color:yellow; font-size: 70px;'> 太慢! </span>","null","","","","","","","","","","","","","","","","","","","","","","","feedback_test"
"","","","","","psychophysics","120","195192","0.0-9.0-0.0-0.5","null","","null","","","","","","","","","","","","","key","null","16.666000000000018","720","446","j","false","img/C_ambi40.png","好人","prac_word_first",""
"","","","","","html-keyboard-response","121","195497","0.0-9.0-0.0-1.5","null","<span class='add_' style='color:yellow; font-size: 70px;'> 太慢! </span>","null","","","","","","","","","","","","","","","","","","","","","","","feedback_test"
"","","","","","psychophysics","122","198149","0.0-9.0-0.0-0.6","null","","null","","","","","","","","","","","","","key","null","16.666000000000018","720","446","f","false","img/S_ambi40.png","常人","prac_word_first",""
"","","","","","html-keyboard-response","123","198455","0.0-9.0-0.0-1.6","null","<span class='add_' style='color:yellow; font-size: 70px;'> 太慢! </span>","null","","","","","","","","","","","","","","","","","","","","","","","feedback_test"
"","","","","","psychophysics","124","201114","0.0-9.0-0.0-0.7","null","","null","","","","","","","","","","","","","key","null","16.666000000000018","720","446","f","false","img/C_ambi40.png","常人","prac_word_first",""
"","","","","","html-keyboard-response","125","201415","0.0-9.0-0.0-1.7","null","<span class='add_' style='color:yellow; font-size: 70px;'> 太慢! </span>","null","","","","","","","","","","","","","","","","","","","","","","","feedback_test"
"","","","","","psychophysics","126","204069","0.0-9.0-0.0-0.8","null","","null","","","","","","","","","","","","","key","null","16.666000000000018","720","446","j","false","img/S_ambi40.png","坏人","prac_word_first",""
"","","","","","html-keyboard-response","127","204370","0.0-9.0-0.0-1.8","null","<span class='add_' style='color:yellow; font-size: 70px;'> 太慢! </span>","null","","","","","","","","","","","","","","","","","","","","","","","feedback_test"
"","","","","","psychophysics","128","207030","0.0-9.0-0.0-0.9","null","","null","","","","","","","","","","","","","key","null","16.665999999999833","720","446","f","false","img/T_ambi40.png","好人","prac_word_first",""
"","","","","","html-keyboard-response","129","207335","0.0-9.0-0.0-1.9","null","<span class='add_' style='color:yellow; font-size: 70px;'> 太慢! </span>","null","","","","","","","","","","","","","","","","","","","","","","","feedback_test"
"","","","","","psychophysics","130","209988","0.0-9.0-0.0-0.10","null","","null","","","","","","","","","","","","","key","null","16.666000000000018","720","446","j","false","img/T_ambi40.png","常人","prac_word_first",""
"","","","","","html-keyboard-response","131","210292","0.0-9.0-0.0-1.10","null","<span class='add_' style='color:yellow; font-size: 70px;'> 太慢! </span>","null","","","","","","","","","","","","","","","","","","","","","","","feedback_test"
"","","","","","psychophysics","132","212948","0.0-9.0-0.0-0.11","null","","null","","","","","","","","","","","","","key","null","16.669331210191032","720","446","j","false","img/C_ambi40.png","好人","prac_word_first",""
"","","","","","html-keyboard-response","133","213252","0.0-9.0-0.0-1.11","null","<span class='add_' style='color:yellow; font-size: 70px;'> 太慢! </span>","null","","","","","","","","","","","","","","","","","","","","","","","feedback_test"
"","","","","","psychophysics","134","215904","0.0-9.0-0.0-0.12","null","","null","","","","","","","","","","","","","key","null","16.666000000000018","720","446","f","false","img/T_ambi40.png","坏人","prac_word_first",""
"","","","","","html-keyboard-response","135","216205","0.0-9.0-0.0-1.12","null","<span class='add_' style='color:yellow; font-size: 70px;'> 太慢! </span>","null","","","","","","","","","","","","","","","","","","","","","","","feedback_test"
"","","","","","psychophysics","136","218860","0.0-9.0-0.0-0.13","null","","null","","","","","","","","","","","","","key","null","16.666000000000018","720","446","j","false","img/T_ambi40.png","常人","prac_word_first",""
"","","","","","html-keyboard-response","137","219163","0.0-9.0-0.0-1.13","null","<span class='add_' style='color:yellow; font-size: 70px;'> 太慢! </span>","null","","","","","","","","","","","","","","","","","","","","","","","feedback_test"
"","","","","","psychophysics","138","221816","0.0-9.0-0.0-0.14","null","","null","","","","","","","","","","","","","key","null","16.666000000000018","720","446","f","false","img/C_ambi40.png","坏人","prac_word_first",""
"","","","","","html-keyboard-response","139","222118","0.0-9.0-0.0-1.14","null","<span class='add_' style='color:yellow; font-size: 70px;'> 太慢! </span>","null","","","","","","","","","","","","","","","","","","","","","","","feedback_test"
"","","","","","psychophysics","140","224771","0.0-9.0-0.0-0.15","null","","null","","","","","","","","","","","","","key","null","16.666000000000018","720","446","j","false","img/T_ambi40.png","常人","prac_word_first",""
"","","","","","html-keyboard-response","141","225075","0.0-9.0-0.0-1.15","null","<span class='add_' style='color:yellow; font-size: 70px;'> 太慢! </span>","null","","","","","","","","","","","","","","","","","","","","","","","feedback_test"
"","","","","","psychophysics","142","227738","0.0-9.0-0.0-0.16","null","","null","","","","","","","","","","","","","key","null","16.666000000000032","720","446","j","false","img/C_ambi40.png","好人","prac_word_first",""
"","","","","","html-keyboard-response","143","228041","0.0-9.0-0.0-1.16","null","<span class='add_' style='color:yellow; font-size: 70px;'> 太慢! </span>","null","","","","","","","","","","","","","","","","","","","","","","","feedback_test"
"","","","","","psychophysics","144","230694","0.0-9.0-0.0-0.17","null","","null","","","","","","","","","","","","","key","null","16.666000000000018","720","446","j","false","img/S_ambi40.png","坏人","prac_word_first",""
"","","","","","html-keyboard-response","145","230997","0.0-9.0-0.0-1.17","null","<span class='add_' style='color:yellow; font-size: 70px;'> 太慢! </span>","null","","","","","","","","","","","","","","","","","","","","","","","feedback_test"
"","","","","","psychophysics","146","233655","0.0-9.0-0.0-0.18","null","","null","","","","","","","","","","","","","key","null","16.669316455696066","720","446","j","false","img/S_ambi40.png","坏人","prac_word_first",""
"","","","","","html-keyboard-response","147","233958","0.0-9.0-0.0-1.18","null","<span class='add_' style='color:yellow; font-size: 70px;'> 太慢! </span>","null","","","","","","","","","","","","","","","","","","","","","","","feedback_test"
"","","","","","psychophysics","148","236612","0.0-9.0-0.0-0.19","null","","null","","","","","","","","","","","","","key","null","16.666000000000018","720","446","f","false","img/S_ambi40.png","常人","prac_word_first",""
"","","","","","html-keyboard-response","149","236917","0.0-9.0-0.0-1.19","null","<span class='add_' style='color:yellow; font-size: 70px;'> 太慢! </span>","null","","","","","","","","","","","","","","","","","","","","","","","feedback_test"
"","","","","","psychophysics","150","239569","0.0-9.0-0.0-0.20","null","","null","","","","","","","","","","","","","key","null","16.666000000000018","720","446","f","false","img/T_ambi40.png","好人","prac_word_first",""
"","","","","","html-keyboard-response","151","239874","0.0-9.0-0.0-1.20","null","<span class='add_' style='color:yellow; font-size: 70px;'> 太慢! </span>","null","","","","","","","","","","","","","","","","","","","","","","","feedback_test"
"","","","","","psychophysics","152","242531","0.0-9.0-0.0-0.21","null","","null","","","","","","","","","","","","","key","null","16.666000000000032","720","446","j","false","img/C_ambi40.png","好人","prac_word_first",""
"","","","","","html-keyboard-response","153","242835","0.0-9.0-0.0-1.21","null","<span class='add_' style='color:yellow; font-size: 70px;'> 太慢! </span>","null","","","","","","","","","","","","","","","","","","","","","","","feedback_test"
"","","","","","psychophysics","154","245487","0.0-9.0-0.0-0.22","null","","null","","","","","","","","","","","","","key","null","16.666000000000018","720","446","f","false","img/C_ambi40.png","常人","prac_word_first",""
"","","","","","html-keyboard-response","155","245793","0.0-9.0-0.0-1.22","null","<span class='add_' style='color:yellow; font-size: 70px;'> 太慢! </span>","null","","","","","","","","","","","","","","","","","","","","","","","feedback_test"
"","","","","","psychophysics","156","248446","0.0-9.0-0.0-0.23","null","","null","","","","","","","","","","","","","key","null","16.665999999999833","720","446","f","false","img/S_ambi40.png","好人","prac_word_first",""
"","","","","","html-keyboard-response","157","248751","0.0-9.0-0.0-1.23","null","<span class='add_' style='color:yellow; font-size: 70px;'> 太慢! </span>","null","","","","","","","","","","","","","","","","","","","","","","","feedback_test"
"","","","","","html-keyboard-response","158","252470","0.0-9.0-1.0-0.0","3717","<style>.context{color:white; font-size: 35px; line-height:40px}</style>                              <div><p class='context'>您正确回答了4% 的试次。</p><p class='context'>您的平均反应时为816毫秒。</p>","f","","","","","","","","","","","","","","","","","","","","","","",""
"","","","","","instructions","159","255973","0.0-9.0-1.0-1.0","3500","","","","","","","","","","","","","","[{""page_index"":0,""viewing_time"":1127},{""page_index"":1,""viewing_time"":1538},{""page_index"":2,""viewing_time"":834}]","","","","","","","","","","",""
"","","","","","psychophysics","160","257946","0.0-9.1-0.1-0.24","818","","f","","","","","","","","","","","","","key","f","16.666000000000174","720","446","f","true","img/C_ambi40.png","常人","prac_word_first",""
"","","","","","html-keyboard-response","161","258247","0.0-9.1-0.1-1.24","null","<span style='color:GreenYellow; font-size: 70px;'>正确! </span>","null","","","","","","","","","","","","","","","","","","","","","","","feedback_test"
"","","","","","psychophysics","162","260089","0.0-9.1-0.1-0.25","690","","f","","","","","","","","","","","","","key","f","16.66600000000011","720","446","f","true","img/S_ambi40.png","常人","prac_word_first",""
"","","","","","html-keyboard-response","163","260393","0.0-9.1-0.1-1.25","null","<span style='color:GreenYellow; font-size: 70px;'>正确! </span>","null","","","","","","","","","","","","","","","","","","","","","","","feedback_test"
"","","","","","psychophysics","164","262597","0.0-9.1-0.1-0.26","1053","","f","","","","","","","","","","","","","key","f","16.666000000000103","720","446","j","false","img/S_ambi40.png","坏人","prac_word_first",""
"","","","","","html-keyboard-response","165","262898","0.0-9.1-0.1-1.26","null","<span style='color:red; font-size: 70px;'>错误! </span>","null","","","","","","","","","","","","","","","","","","","","","","","feedback_test"
"","","","","","psychophysics","166","264769","0.0-9.1-0.1-0.27","720","","j","","","","","","","","","","","","","key","j","16.666000000000324","720","446","f","false","img/T_ambi40.png","好人","prac_word_first",""
"","","","","","html-keyboard-response","167","265072","0.0-9.1-0.1-1.27","null","<span style='color:red; font-size: 70px;'>错误! </span>","null","","","","","","","","","","","","","","","","","","","","","","","feedback_test"
"","","","","","psychophysics","168","266945","0.0-9.1-0.1-0.28","721","","f","","","","","","","","","","","","","key","f","16.666000000000324","720","446","f","true","img/T_ambi40.png","坏人","prac_word_first",""
"","","","","","html-keyboard-response","169","267247","0.0-9.1-0.1-1.28","null","<span style='color:GreenYellow; font-size: 70px;'>正确! </span>","null","","","","","","","","","","","","","","","","","","","","","","","feedback_test"
"","","","","","psychophysics","170","268909","0.0-9.1-0.1-0.29","510","","j","","","","","","","","","","","","","key","j","16.66600000000041","720","446","j","true","img/C_ambi40.png","好人","prac_word_first",""
"","","","","","html-keyboard-response","171","269212","0.0-9.1-0.1-1.29","null","<span style='color:GreenYellow; font-size: 70px;'>正确! </span>","null","","","","","","","","","","","","","","","","","","","","","","","feedback_test"
"","","","","","psychophysics","172","270724","0.0-9.1-0.1-0.30","360","","f","","","","","","","","","","","","","key","f","16.665999999999727","720","446","j","false","img/T_ambi40.png","常人","prac_word_first",""
"","","","","","html-keyboard-response","173","271026","0.0-9.1-0.1-1.30","null","<span style='color:red; font-size: 70px;'>错误! </span>","null","","","","","","","","","","","","","","","","","","","","","","","feedback_test"
"","","","","","psychophysics","174","272360","0.0-9.1-0.1-0.31","181","","j","","","","","","","","","","","","","key","j","16.665999999999677","720","446","j","true","img/C_ambi40.png","好人","prac_word_first",""
"","","","","","html-keyboard-response","175","272662","0.0-9.1-0.1-1.31","null","<span style='color:yellow; font-size: 70px;'>过快! </span>","null","","","","","","","","","","","","","","","","","","","","","","","feedback_test"
"","","","","","psychophysics","176","274688","0.0-9.1-0.1-0.32","873","","f","","","","","","","","","","","","","key","f","16.670400000000274","720","446","f","true","img/S_ambi40.png","好人","prac_word_first",""
"","","","","","html-keyboard-response","177","274992","0.0-9.1-0.1-1.32","null","<span style='color:GreenYellow; font-size: 70px;'>正确! </span>","null","","","","","","","","","","","","","","","","","","","","","","","feedback_test"
"","","","","","psychophysics","178","276636","0.0-9.1-0.1-0.33","492","","j","","","","","","","","","","","","","key","j","16.66599999999954","720","446","f","false","img/C_ambi40.png","坏人","prac_word_first",""
"","","","","","html-keyboard-response","179","276941","0.0-9.1-0.1-1.33","null","<span style='color:red; font-size: 70px;'>错误! </span>","null","","","","","","","","","","","","","","","","","","","","","","","feedback_test"
"","","","","","psychophysics","180","278778","0.0-9.1-0.1-0.34","686","","j","","","","","","","","","","","","","key","j","16.666000000000135","720","446","j","true","img/T_ambi40.png","常人","prac_word_first",""
"","","","","","html-keyboard-response","181","279084","0.0-9.1-0.1-1.34","null","<span style='color:GreenYellow; font-size: 70px;'>正确! </span>","null","","","","","","","","","","","","","","","","","","","","","","","feedback_test"
"","","","","","psychophysics","182","280971","0.0-9.1-0.1-0.35","736","","j","","","","","","","","","","","","","key","j","16.666000000000036","720","446","j","true","img/S_ambi40.png","坏人","prac_word_first",""
"","","","","","html-keyboard-response","183","281274","0.0-9.1-0.1-1.35","null","<span style='color:GreenYellow; font-size: 70px;'>正确! </span>","null","","","","","","","","","","","","","","","","","","","","","","","feedback_test"
"","","","","","psychophysics","184","283158","0.0-9.1-0.1-0.36","730","","j","","","","","","","","","","","","","key","j","16.666000000000036","720","446","j","true","img/T_ambi40.png","常人","prac_word_first",""
"","","","","","html-keyboard-response","185","283462","0.0-9.1-0.1-1.36","null","<span style='color:GreenYellow; font-size: 70px;'>正确! </span>","null","","","","","","","","","","","","","","","","","","","","","","","feedback_test"
"","","","","","psychophysics","186","285440","0.0-9.1-0.1-0.37","825","","j","","","","","","","","","","","","","key","j","16.666000000000174","720","446","f","false","img/C_ambi40.png","坏人","prac_word_first",""
"","","","","","html-keyboard-response","187","285743","0.0-9.1-0.1-1.37","null","<span style='color:red; font-size: 70px;'>错误! </span>","null","","","","","","","","","","","","","","","","","","","","","","","feedback_test"
"","","","","","psychophysics","188","287542","0.0-9.1-0.1-0.38","646","","f","","","","","","","","","","","","","key","f","16.666000000000185","720","446","f","true","img/C_ambi40.png","常人","prac_word_first",""
"","","","","","html-keyboard-response","189","287844","0.0-9.1-0.1-1.38","null","<span style='color:GreenYellow; font-size: 70px;'>正确! </span>","null","","","","","","","","","","","","","","","","","","","","","","","feedback_test"
"","","","","","psychophysics","190","289872","0.0-9.1-0.1-0.39","875","","j","","","","","","","","","","","","","key","j","16.665999999999865","720","446","j","true","img/T_ambi40.png","常人","prac_word_first",""
"","","","","","html-keyboard-response","191","290176","0.0-9.1-0.1-1.39","null","<span style='color:GreenYellow; font-size: 70px;'>正确! </span>","null","","","","","","","","","","","","","","","","","","","","","","","feedback_test"
"","","","","","psychophysics","192","291770","0.0-9.1-0.1-0.40","439","","j","","","","","","","","","","","","","key","j","16.665999999999585","720","446","j","true","img/S_ambi40.png","坏人","prac_word_first",""
"","","","","","html-keyboard-response","193","292072","0.0-9.1-0.1-1.40","null","<span style='color:GreenYellow; font-size: 70px;'>正确! </span>","null","","","","","","","","","","","","","","","","","","","","","","","feedback_test"
"","","","","","psychophysics","194","294065","0.0-9.1-0.1-0.41","839","","j","","","","","","","","","","","","","key","j","16.670432203390114","720","446","j","true","img/C_ambi40.png","好人","prac_word_first",""
"","","","","","html-keyboard-response","195","294369","0.0-9.1-0.1-1.41","null","<span style='color:GreenYellow; font-size: 70px;'>正确! </span>","null","","","","","","","","","","","","","","","","","","","","","","","feedback_test"
"","","","","","psychophysics","196","296313","0.0-9.1-0.1-0.42","792","","f","","","","","","","","","","","","","key","f","16.665999999999716","720","446","f","true","img/S_ambi40.png","常人","prac_word_first",""
"","","","","","html-keyboard-response","197","296618","0.0-9.1-0.1-1.42","null","<span style='color:GreenYellow; font-size: 70px;'>正确! </span>","null","","","","","","","","","","","","","","","","","","","","","","","feedback_test"
"","","","","","psychophysics","198","298203","0.0-9.1-0.1-0.43","433","","f","","","","","","","","","","","","","key","f","16.665999999999915","720","446","f","true","img/T_ambi40.png","坏人","prac_word_first",""
"","","","","","html-keyboard-response","199","298508","0.0-9.1-0.1-1.43","null","<span style='color:GreenYellow; font-size: 70px;'>正确! </span>","null","","","","","","","","","","","","","","","","","","","","","","","feedback_test"
"","","","","","psychophysics","200","300982","0.0-9.1-0.1-0.44","1321","","j","","","","","","","","","","","","","key","j","16.665999999999798","720","446","f","false","img/S_ambi40.png","好人","prac_word_first",""
"","","","","","html-keyboard-response","201","301287","0.0-9.1-0.1-1.44","null","<span style='color:red; font-size: 70px;'>错误! </span>","null","","","","","","","","","","","","","","","","","","","","","","","feedback_test"
"","","","","","psychophysics","202","303143","0.0-9.1-0.1-0.45","704","","j","","","","","","","","","","","","","key","j","16.665999999999556","720","446","j","true","img/S_ambi40.png","坏人","prac_word_first",""
"","","","","","html-keyboard-response","203","303445","0.0-9.1-0.1-1.45","null","<span style='color:GreenYellow; font-size: 70px;'>正确! </span>","null","","","","","","","","","","","","","","","","","","","","","","","feedback_test"
"","","","","","psychophysics","204","305662","0.0-9.1-0.1-0.46","1065","","j","","","","","","","","","","","","","key","j","16.666000000000327","720","446","j","true","img/C_ambi40.png","好人","prac_word_first",""
"","","","","","html-keyboard-response","205","305968","0.0-9.1-0.1-1.46","null","<span style='color:GreenYellow; font-size: 70px;'>正确! </span>","null","","","","","","","","","","","","","","","","","","","","","","","feedback_test"
"","","","","","psychophysics","206","307729","0.0-9.1-0.1-0.47","610","","f","","","","","","","","","","","","","key","f","16.66600000000024","720","446","f","true","img/T_ambi40.png","好人","prac_word_first",""
"","","","","","html-keyboard-response","207","308034","0.0-9.1-0.1-1.47","null","<span style='color:GreenYellow; font-size: 70px;'>正确! </span>","null","","","","","","","","","","","","","","","","","","","","","","","feedback_test"
"","","","","","html-keyboard-response","208","308961","0.0-10.0","922","<style>.context{color:white; font-size: 35px; line-height:40px}</style>                              <div><p class='context'>您正确回答了75% 的试次。</p><p class='context'>您的平均反应时为686毫秒。</p><p class='context'>恭喜您完成练习。按任意键进入<span style='color: yellow;'>图形和文字同时呈现条件</span>的练习。</p></div>","j","","","","","","","","","","","","","","","","","","","","","","",""
"","","","","","psychophysics","209","311134","0.0-11.0-0.0-0.0","1168","","j","","","","","","","","","","","","","key","j","16.666000000000373","720","446","j","true","img/C_ambi40.png","好人","prac_simultaneous",""
"","","","","","html-keyboard-response","210","311438","0.0-11.0-0.0-1.0","null","<span style='color:GreenYellow; font-size: 70px;'>正确! </span>","null","","","","","","","","","","","","","","","","","","","","","","","feedback_test"
"","","","","","psychophysics","211","313942","0.0-11.0-0.0-0.1","null","","null","","","","","","","","","","","","","key","null","16.669516778523306","720","446","j","false","img/C_ambi40.png","好人","prac_simultaneous",""
"","","","","","html-keyboard-response","212","314242","0.0-11.0-0.0-1.1","null","<span class='add_' style='color:yellow; font-size: 70px;'> 太慢! </span>","null","","","","","","","","","","","","","","","","","","","","","","","feedback_test"
"","","","","","psychophysics","213","316747","0.0-11.0-0.0-0.2","null","","null","","","","","","","","","","","","","key","null","16.66599999999998","720","446","f","false","img/C_ambi40.png","坏人","prac_simultaneous",""
"","","","","","html-keyboard-response","214","317053","0.0-11.0-0.0-1.2","null","<span class='add_' style='color:yellow; font-size: 70px;'> 太慢! </span>","null","","","","","","","","","","","","","","","","","","","","","","","feedback_test"
"","","","","","psychophysics","215","319370","0.0-11.0-0.0-0.3","1314","","f","","","","","","","","","","","","","key","f","16.66599999999997","720","446","f","true","img/T_ambi40.png","好人","prac_simultaneous",""
"","","","","","html-keyboard-response","216","319675","0.0-11.0-0.0-1.3","null","<span style='color:GreenYellow; font-size: 70px;'>正确! </span>","null","","","","","","","","","","","","","","","","","","","","","","","feedback_test"
"","","","","","psychophysics","217","322183","0.0-11.0-0.0-0.4","null","","null","","","","","","","","","","","","","key","null","16.666000000000157","720","446","j","false","img/T_ambi40.png","常人","prac_simultaneous",""
"","","","","","html-keyboard-response","218","322484","0.0-11.0-0.0-1.4","null","<span class='add_' style='color:yellow; font-size: 70px;'> 太慢! </span>","null","","","","","","","","","","","","","","","","","","","","","","","feedback_test"
"","","","","","psychophysics","219","324987","0.0-11.0-0.0-0.5","null","","null","","","","","","","","","","","","","key","null","16.66599999999998","720","446","j","false","img/S_ambi40.png","坏人","prac_simultaneous",""
"","","","","","html-keyboard-response","220","325292","0.0-11.0-0.0-1.5","null","<span class='add_' style='color:yellow; font-size: 70px;'> 太慢! </span>","null","","","","","","","","","","","","","","","","","","","","","","","feedback_test"
"","","","","","psychophysics","221","327799","0.0-11.0-0.0-0.6","null","","null","","","","","","","","","","","","","key","null","16.666000000000157","720","446","f","false","img/S_ambi40.png","好人","prac_simultaneous",""
"","","","","","html-keyboard-response","222","328102","0.0-11.0-0.0-1.6","null","<span class='add_' style='color:yellow; font-size: 70px;'> 太慢! </span>","null","","","","","","","","","","","","","","","","","","","","","","","feedback_test"
"","","","","","psychophysics","223","330606","0.0-11.0-0.0-0.7","null","","null","","","","","","","","","","","","","key","null","16.66599999999998","720","446","f","false","img/T_ambi40.png","坏人","prac_simultaneous",""
"","","","","","html-keyboard-response","224","330909","0.0-11.0-0.0-1.7","null","<span class='add_' style='color:yellow; font-size: 70px;'> 太慢! </span>","null","","","","","","","","","","","","","","","","","","","","","","","feedback_test"
"","","","","","psychophysics","225","333417","0.0-11.0-0.0-0.8","null","","null","","","","","","","","","","","","","key","null","16.66948666666673","720","446","j","false","img/S_ambi40.png","坏人","prac_simultaneous",""
"","","","","","html-keyboard-response","226","333719","0.0-11.0-0.0-1.8","null","<span class='add_' style='color:yellow; font-size: 70px;'> 太慢! </span>","null","","","","","","","","","","","","","","","","","","","","","","","feedback_test"
"","","","","","psychophysics","227","336223","0.0-11.0-0.0-0.9","null","","null","","","","","","","","","","","","","key","null","16.66599999999998","720","446","f","false","img/S_ambi40.png","常人","prac_simultaneous",""
"","","","","","html-keyboard-response","228","336524","0.0-11.0-0.0-1.9","null","<span class='add_' style='color:yellow; font-size: 70px;'> 太慢! </span>","null","","","","","","","","","","","","","","","","","","","","","","","feedback_test"
"","","","","","psychophysics","229","339032","0.0-11.0-0.0-0.10","null","","null","","","","","","","","","","","","","key","null","16.66599999999998","720","446","f","false","img/C_ambi40.png","常人","prac_simultaneous",""
"","","","","","html-keyboard-response","230","339335","0.0-11.0-0.0-1.10","null","<span class='add_' style='color:yellow; font-size: 70px;'> 太慢! </span>","null","","","","","","","","","","","","","","","","","","","","","","","feedback_test"
"","","","","","psychophysics","231","341839","0.0-11.0-0.0-0.11","null","","null","","","","","","","","","","","","","key","null","16.66599999999998","720","446","j","false","img/T_ambi40.png","常人","prac_simultaneous",""
"","","","","","html-keyboard-response","232","342142","0.0-11.0-0.0-1.11","null","<span class='add_' style='color:yellow; font-size: 70px;'> 太慢! </span>","null","","","","","","","","","","","","","","","","","","","","","","","feedback_test"
"","","","","","psychophysics","233","344650","0.0-11.0-0.0-0.12","null","","null","","","","","","","","","","","","","key","null","16.66599999999998","720","446","f","false","img/C_ambi40.png","坏人","prac_simultaneous",""
"","","","","","html-keyboard-response","234","344954","0.0-11.0-0.0-1.12","null","<span class='add_' style='color:yellow; font-size: 70px;'> 太慢! </span>","null","","","","","","","","","","","","","","","","","","","","","","","feedback_test"
"","","","","","psychophysics","235","347457","0.0-11.0-0.0-0.13","null","","null","","","","","","","","","","","","","key","null","16.66599999999998","720","446","f","false","img/T_ambi40.png","坏人","prac_simultaneous",""
"","","","","","html-keyboard-response","236","347762","0.0-11.0-0.0-1.13","null","<span class='add_' style='color:yellow; font-size: 70px;'> 太慢! </span>","null","","","","","","","","","","","","","","","","","","","","","","","feedback_test"
"","","","","","psychophysics","237","350265","0.0-11.0-0.0-0.14","null","","null","","","","","","","","","","","","","key","null","16.66600000000037","720","446","j","false","img/S_ambi40.png","坏人","prac_simultaneous",""
"","","","","","html-keyboard-response","238","350569","0.0-11.0-0.0-1.14","null","<span class='add_' style='color:yellow; font-size: 70px;'> 太慢! </span>","null","","","","","","","","","","","","","","","","","","","","","","","feedback_test"
"","","","","","psychophysics","239","353073","0.0-11.0-0.0-0.15","null","","null","","","","","","","","","","","","","key","null","16.669516778523306","720","446","j","false","img/S_ambi40.png","坏人","prac_simultaneous",""
"","","","","","html-keyboard-response","240","353379","0.0-11.0-0.0-1.15","null","<span class='add_' style='color:yellow; font-size: 70px;'> 太慢! </span>","null","","","","","","","","","","","","","","","","","","","","","","","feedback_test"
"","","","","","psychophysics","241","355887","0.0-11.0-0.0-0.16","null","","null","","","","","","","","","","","","","key","null","16.66599999999998","720","446","f","false","img/S_ambi40.png","常人","prac_simultaneous",""
"","","","","","html-keyboard-response","242","356192","0.0-11.0-0.0-1.16","null","<span class='add_' style='color:yellow; font-size: 70px;'> 太慢! </span>","null","","","","","","","","","","","","","","","","","","","","","","","feedback_test"
"","","","","","psychophysics","243","358695","0.0-11.0-0.0-0.17","null","","null","","","","","","","","","","","","","key","null","16.66599999999998","720","446","f","false","img/S_ambi40.png","好人","prac_simultaneous",""
"","","","","","html-keyboard-response","244","358998","0.0-11.0-0.0-1.17","null","<span class='add_' style='color:yellow; font-size: 70px;'> 太慢! </span>","null","","","","","","","","","","","","","","","","","","","","","","","feedback_test"
"","","","","","psychophysics","245","361501","0.0-11.0-0.0-0.18","null","","null","","","","","","","","","","","","","key","null","16.66599999999998","720","446","f","false","img/T_ambi40.png","好人","prac_simultaneous",""
"","","","","","html-keyboard-response","246","361807","0.0-11.0-0.0-1.18","null","<span class='add_' style='color:yellow; font-size: 70px;'> 太慢! </span>","null","","","","","","","","","","","","","","","","","","","","","","","feedback_test"
"","","","","","psychophysics","247","364312","0.0-11.0-0.0-0.19","null","","null","","","","","","","","","","","","","key","null","16.665999999999798","720","446","j","false","img/C_ambi40.png","好人","prac_simultaneous",""
"","","","","","html-keyboard-response","248","364617","0.0-11.0-0.0-1.19","null","<span class='add_' style='color:yellow; font-size: 70px;'> 太慢! </span>","null","","","","","","","","","","","","","","","","","","","","","","","feedback_test"
"","","","","","psychophysics","249","367123","0.0-11.0-0.0-0.20","null","","null","","","","","","","","","","","","","key","null","16.66599999999998","720","446","j","false","img/C_ambi40.png","好人","prac_simultaneous",""
"","","","","","html-keyboard-response","250","367424","0.0-11.0-0.0-1.20","null","<span class='add_' style='color:yellow; font-size: 70px;'> 太慢! </span>","null","","","","","","","","","","","","","","","","","","","","","","","feedback_test"
"","","","","","psychophysics","251","369929","0.0-11.0-0.0-0.21","null","","null","","","","","","","","","","","","","key","null","16.66599999999998","720","446","j","false","img/T_ambi40.png","常人","prac_simultaneous",""
"","","","","","html-keyboard-response","252","370231","0.0-11.0-0.0-1.21","null","<span class='add_' style='color:yellow; font-size: 70px;'> 太慢! </span>","null","","","","","","","","","","","","","","","","","","","","","","","feedback_test"
"","","","","","psychophysics","253","372733","0.0-11.0-0.0-0.22","null","","null","","","","","","","","","","","","","key","null","16.66599999999998","720","446","f","false","img/C_ambi40.png","常人","prac_simultaneous",""
"","","","","","html-keyboard-response","254","373037","0.0-11.0-0.0-1.22","null","<span class='add_' style='color:yellow; font-size: 70px;'> 太慢! </span>","null","","","","","","","","","","","","","","","","","","","","","","","feedback_test"
"","","","","","psychophysics","255","375546","0.0-11.0-0.0-0.23","null","","null","","","","","","","","","","","","","key","null","16.66599999999998","720","446","j","false","img/T_ambi40.png","常人","prac_simultaneous",""
"","","","","","html-keyboard-response","256","375847","0.0-11.0-0.0-1.23","null","<span class='add_' style='color:yellow; font-size: 70px;'> 太慢! </span>","null","","","","","","","","","","","","","","","","","","","","","","","feedback_test"
"","","","","","html-keyboard-response","257","378560","0.0-11.0-1.0-0.0","2710","<style>.context{color:white; font-size: 35px; line-height:40px}</style>                              <div><p class='context'>您正确回答了8% 的试次。</p><p class='context'>您的平均反应时为1241毫秒。</p>","j","","","","","","","","","","","","","","","","","","","","","","",""
"","","","","","instructions","258","384333","0.0-11.0-1.0-1.0","5769","","","","","","","","","","","","","","[{""page_index"":0,""viewing_time"":2549},{""page_index"":1,""viewing_time"":2115},{""page_index"":2,""viewing_time"":1105}]","","","","","","","","","","",""
"","","","","","psychophysics","259","386043","0.0-11.1-0.1-0.24","704","","f","","","","","","","","","","","","","key","f","16.666000000000032","720","446","f","true","img/C_ambi40.png","坏人","prac_simultaneous",""
"","","","","","html-keyboard-response","260","386346","0.0-11.1-0.1-1.24","null","<span style='color:GreenYellow; font-size: 70px;'>正确! </span>","null","","","","","","","","","","","","","","","","","","","","","","","feedback_test"
"","","","","","psychophysics","261","388076","0.0-11.1-0.1-0.25","728","","f","","","","","","","","","","","","","key","f","16.66600000000029","720","446","j","false","img/C_ambi40.png","好人","prac_simultaneous",""
"","","","","","html-keyboard-response","262","388381","0.0-11.1-0.1-1.25","null","<span style='color:red; font-size: 70px;'>错误! </span>","null","","","","","","","","","","","","","","","","","","","","","","","feedback_test"
"","","","","","psychophysics","263","390125","0.0-11.1-0.1-0.26","743","","j","","","","","","","","","","","","","key","j","16.665999999999983","720","446","j","true","img/S_ambi40.png","坏人","prac_simultaneous",""
"","","","","","html-keyboard-response","264","390427","0.0-11.1-0.1-1.26","null","<span style='color:GreenYellow; font-size: 70px;'>正确! </span>","null","","","","","","","","","","","","","","","","","","","","","","","feedback_test"
"","","","","","psychophysics","265","391907","0.0-11.1-0.1-0.27","477","","f","","","","","","","","","","","","","key","f","16.66599999999978","720","446","f","true","img/T_ambi40.png","坏人","prac_simultaneous",""
"","","","","","html-keyboard-response","266","392209","0.0-11.1-0.1-1.27","null","<span style='color:GreenYellow; font-size: 70px;'>正确! </span>","null","","","","","","","","","","","","","","","","","","","","","","","feedback_test"
"","","","","","psychophysics","267","394141","0.0-11.1-0.1-0.28","929","","j","","","","","","","","","","","","","key","j","16.666000000000224","720","446","j","true","img/S_ambi40.png","坏人","prac_simultaneous",""
"","","","","","html-keyboard-response","268","394443","0.0-11.1-0.1-1.28","null","<span style='color:GreenYellow; font-size: 70px;'>正确! </span>","null","","","","","","","","","","","","","","","","","","","","","","","feedback_test"
"","","","","","psychophysics","269","396333","0.0-11.1-0.1-0.29","888","","f","","","","","","","","","","","","","key","f","16.666000000000036","720","446","f","true","img/C_ambi40.png","常人","prac_simultaneous",""
"","","","","","html-keyboard-response","270","396637","0.0-11.1-0.1-1.29","null","<span style='color:GreenYellow; font-size: 70px;'>正确! </span>","null","","","","","","","","","","","","","","","","","","","","","","","feedback_test"
"","","","","","psychophysics","271","398251","0.0-11.1-0.1-0.30","611","","j","","","","","","","","","","","","","key","j","16.665999999999585","720","446","j","true","img/T_ambi40.png","常人","prac_simultaneous",""
"","","","","","html-keyboard-response","272","398556","0.0-11.1-0.1-1.30","null","<span style='color:GreenYellow; font-size: 70px;'>正确! </span>","null","","","","","","","","","","","","","","","","","","","","","","","feedback_test"
"","","","","","psychophysics","273","400069","0.0-11.1-0.1-0.31","510","","f","","","","","","","","","","","","","key","f","16.666000000000025","720","446","f","true","img/S_ambi40.png","常人","prac_simultaneous",""
"","","","","","html-keyboard-response","274","400375","0.0-11.1-0.1-1.31","null","<span style='color:GreenYellow; font-size: 70px;'>正确! </span>","null","","","","","","","","","","","","","","","","","","","","","","","feedback_test"
"","","","","","psychophysics","275","401918","0.0-11.1-0.1-0.32","541","","f","","","","","","","","","","","","","key","f","16.666000000000317","720","446","f","true","img/T_ambi40.png","好人","prac_simultaneous",""
"","","","","","html-keyboard-response","276","402219","0.0-11.1-0.1-1.32","null","<span style='color:GreenYellow; font-size: 70px;'>正确! </span>","null","","","","","","","","","","","","","","","","","","","","","","","feedback_test"
"","","","","","psychophysics","277","403592","0.0-11.1-0.1-0.33","372","","j","","","","","","","","","","","","","key","j","16.672469135802842","720","446","j","true","img/C_ambi40.png","好人","prac_simultaneous",""
"","","","","","html-keyboard-response","278","403893","0.0-11.1-0.1-1.33","null","<span style='color:GreenYellow; font-size: 70px;'>正确! </span>","null","","","","","","","","","","","","","","","","","","","","","","","feedback_test"
"","","","","","psychophysics","279","405425","0.0-11.1-0.1-0.34","531","","j","","","","","","","","","","","","","key","j","16.666000000000025","720","446","f","false","img/S_ambi40.png","好人","prac_simultaneous",""
"","","","","","html-keyboard-response","280","405731","0.0-11.1-0.1-1.34","null","<span style='color:red; font-size: 70px;'>错误! </span>","null","","","","","","","","","","","","","","","","","","","","","","","feedback_test"
"","","","","","psychophysics","281","407302","0.0-11.1-0.1-0.35","570","","j","","","","","","","","","","","","","key","j","16.66599999999963","720","446","j","true","img/T_ambi40.png","常人","prac_simultaneous",""
"","","","","","html-keyboard-response","282","407605","0.0-11.1-0.1-1.35","null","<span style='color:GreenYellow; font-size: 70px;'>正确! </span>","null","","","","","","","","","","","","","","","","","","","","","","","feedback_test"
"","","","","","psychophysics","283","409232","0.0-11.1-0.1-0.36","622","","j","","","","","","","","","","","","","key","j","16.665999999999865","720","446","f","false","img/T_ambi40.png","好人","prac_simultaneous",""
"","","","","","html-keyboard-response","284","409532","0.0-11.1-0.1-1.36","null","<span style='color:red; font-size: 70px;'>错误! </span>","null","","","","","","","","","","","","","","","","","","","","","","","feedback_test"
"","","","","","psychophysics","285","411263","0.0-11.1-0.1-0.37","728","","j","","","","","","","","","","","","","key","j","16.665999999999983","720","446","j","true","img/T_ambi40.png","常人","prac_simultaneous",""
"","","","","","html-keyboard-response","286","411569","0.0-11.1-0.1-1.37","null","<span style='color:GreenYellow; font-size: 70px;'>正确! </span>","null","","","","","","","","","","","","","","","","","","","","","","","feedback_test"
"","","","","","psychophysics","287","413190","0.0-11.1-0.1-0.38","619","","j","","","","","","","","","","","","","key","j","16.665999999999865","720","446","j","true","img/T_ambi40.png","常人","prac_simultaneous",""
"","","","","","html-keyboard-response","288","413491","0.0-11.1-0.1-1.38","null","<span style='color:GreenYellow; font-size: 70px;'>正确! </span>","null","","","","","","","","","","","","","","","","","","","","","","","feedback_test"
"","","","","","psychophysics","289","415368","0.0-11.1-0.1-0.39","874","","j","","","","","","","","","","","","","key","j","16.665999999999798","720","446","f","false","img/C_ambi40.png","坏人","prac_simultaneous",""
"","","","","","html-keyboard-response","290","415672","0.0-11.1-0.1-1.39","null","<span style='color:red; font-size: 70px;'>错误! </span>","null","","","","","","","","","","","","","","","","","","","","","","","feedback_test"
"","","","","","psychophysics","291","417407","0.0-11.1-0.1-0.40","732","","j","","","","","","","","","","","","","key","j","16.665999999999983","720","446","j","true","img/S_ambi40.png","坏人","prac_simultaneous",""
"","","","","","html-keyboard-response","292","417711","0.0-11.1-0.1-1.40","null","<span style='color:GreenYellow; font-size: 70px;'>正确! </span>","null","","","","","","","","","","","","","","","","","","","","","","","feedback_test"
"","","","","","psychophysics","293","419898","0.0-11.1-0.1-0.41","1186","","f","","","","","","","","","","","","","key","f","16.665999999999677","720","446","f","true","img/S_ambi40.png","好人","prac_simultaneous",""
"","","","","","html-keyboard-response","294","420204","0.0-11.1-0.1-1.41","null","<span style='color:GreenYellow; font-size: 70px;'>正确! </span>","null","","","","","","","","","","","","","","","","","","","","","","","feedback_test"
"","","","","","psychophysics","295","422418","0.0-11.1-0.1-0.42","1211","","j","","","","","","","","","","","","","key","j","16.666000000000086","720","446","j","true","img/C_ambi40.png","好人","prac_simultaneous",""
"","","","","","html-keyboard-response","296","422719","0.0-11.1-0.1-1.42","null","<span style='color:GreenYellow; font-size: 70px;'>正确! </span>","null","","","","","","","","","","","","","","","","","","","","","","","feedback_test"
"","","","","","psychophysics","297","424701","0.0-11.1-0.1-0.43","981","","f","","","","","","","","","","","","","key","f","16.67043220338962","720","446","f","true","img/C_ambi40.png","常人","prac_simultaneous",""
"","","","","","html-keyboard-response","298","425004","0.0-11.1-0.1-1.43","null","<span style='color:GreenYellow; font-size: 70px;'>正确! </span>","null","","","","","","","","","","","","","","","","","","","","","","","feedback_test"
"","","","","","psychophysics","299","426875","0.0-11.1-0.1-0.44","869","","j","","","","","","","","","","","","","key","j","16.665999999999798","720","446","f","false","img/S_ambi40.png","常人","prac_simultaneous",""
"","","","","","html-keyboard-response","300","427180","0.0-11.1-0.1-1.44","null","<span style='color:red; font-size: 70px;'>错误! </span>","null","","","","","","","","","","","","","","","","","","","","","","","feedback_test"
"","","","","","psychophysics","301","429090","0.0-11.1-0.1-0.45","909","","f","","","","","","","","","","","","","key","f","16.665999999999755","720","446","f","true","img/T_ambi40.png","坏人","prac_simultaneous",""
"","","","","","html-keyboard-response","302","429391","0.0-11.1-0.1-1.45","null","<span style='color:GreenYellow; font-size: 70px;'>正确! </span>","null","","","","","","","","","","","","","","","","","","","","","","","feedback_test"
"","","","","","psychophysics","303","431616","0.0-11.1-0.1-0.46","1222","","j","","","","","","","","","","","","","key","j","16.665999999999848","720","446","j","true","img/S_ambi40.png","坏人","prac_simultaneous",""
"","","","","","html-keyboard-response","304","431918","0.0-11.1-0.1-1.46","null","<span style='color:GreenYellow; font-size: 70px;'>正确! </span>","null","","","","","","","","","","","","","","","","","","","","","","","feedback_test"
"","","","","","psychophysics","305","433518","0.0-11.1-0.1-0.47","599","","j","","","","","","","","","","","","","key","j","16.666000000000196","720","446","j","true","img/C_ambi40.png","好人","prac_simultaneous",""
"","","","","","html-keyboard-response","306","433821","0.0-11.1-0.1-1.47","null","<span style='color:GreenYellow; font-size: 70px;'>正确! </span>","null","","","","","","","","","","","","","","","","","","","","","","","feedback_test"
"","","","","","html-keyboard-response","307","438152","0.0-12.0","4326","<style>.context{color:white; font-size: 35px; line-height:40px}</style>                              <div><p class='context'>您正确回答了79% 的试次。</p><p class='context'>您的平均反应时为765毫秒。</p><p class='context'>恭喜您完成练习。按任意键进入正式实验。</p><p class='footer' style='font-size: 35px; line-height:40px;'>请在进入正式实验实验之前将您的<span style='color: lightgreen;'>食指</span>放在电脑键盘的相应键位上进行按键。</p>","j","","","","","","","","","","","","","","","","","","","","","","",""
"","","","","","html-keyboard-response","308","439955","0.0-13.0-1.0-0.0","1798","
      <p>请您将手指放在按键上，准备进入呈现顺序为<span style='color: yellow;'>先文字后图形条件</span>的正式匹配任务</p>
      <p> <div style = ""color: green""><按任意键进入下一阶段的匹配任务></div></p>
      ","j","","","","","","","","","","","","","","","","","","","","","","",""
"","","","","","psychophysics","309","442608","0.0-13.0-1.0-1.0-0.0-0.0","null","","null","","","","","","","","","","","","","key","null","18.28972222222203","720","446","f","false","img/S_ambi40.png","好人","word_first",""
"","","","","","html-keyboard-response","310","442911","0.0-13.0-1.0-1.0-0.0-1.0","null","<span class='add_' style='color:yellow; font-size: 70px;'> 太慢! </span>","null","","","","","","","","","","","","","","","","","","","","","","","feedback_test"
"","","","","","psychophysics","311","446454","0.0-13.0-1.0-1.0-0.0-0.1","null","","null","","","","","","","","","","","","","key","null","16.66599999999984","720","378","j","false","img/S_ambi40.png","坏人","word_first",""
"","","","","","html-keyboard-response","312","447430","0.0-13.0-1.0-1.0-0.0-1.1","null","<span class='add_' style='color:yellow; font-size: 70px;'> 太慢! </span>","null","","","","","","","","","","","","","","","","","","","","","","","feedback_test"
"","","","","","psychophysics","313","450461","0.0-13.0-1.0-1.0-0.0-0.2","null","","null","","","","","","","","","","","","","key","null","NaN","720","378","f","false","img/C_ambi40.png","坏人","word_first",""
"","","","","","html-keyboard-response","314","451762","0.0-13.0-1.0-1.0-0.0-1.2","null","<span class='add_' style='color:yellow; font-size: 70px;'> 太慢! </span>","null","","","","","","","","","","","","","","","","","","","","","","","feedback_test"
"","","","","","psychophysics","315","455627","0.0-13.0-1.0-1.0-0.0-0.3","null","","null","","","","","","","","","","","","","key","null","NaN","720","378","f","false","img/C_ambi40.png","常人","word_first",""
"","","","","","html-keyboard-response","316","456828","0.0-13.0-1.0-1.0-0.0-1.3","null","<span class='add_' style='color:yellow; font-size: 70px;'> 太慢! </span>","null","","","","","","","","","","","","","","","","","","","","","","","feedback_test"
"","","","","","psychophysics","317","460430","0.0-13.0-1.0-1.0-0.0-0.4","null","","null","","","","","","","","","","","","","key","null","NaN","720","378","j","false","img/T_ambi40.png","常人","word_first",""
"","","","","","html-keyboard-response","318","461467","0.0-13.0-1.0-1.0-0.0-1.4","null","<span class='add_' style='color:yellow; font-size: 70px;'> 太慢! </span>","null","","","","","","","","","","","","","","","","","","","","","","","feedback_test"
"","","","","","psychophysics","319","464410","0.0-13.0-1.0-1.0-0.0-0.5","null","","null","","","","","","","","","","","","","key","null","NaN","720","378","f","false","img/T_ambi40.png","坏人","word_first",""
"","","","","","html-keyboard-response","320","465876","0.0-13.0-1.0-1.0-0.0-1.5","null","<span class='add_' style='color:yellow; font-size: 70px;'> 太慢! </span>","null","","","","","","","","","","","","","","","","","","","","","","","feedback_test"
"","","","","","psychophysics","321","469673","0.0-13.0-1.0-1.0-0.0-0.6","null","","null","","","","","","","","","","","","","key","null","NaN","720","378","j","false","img/T_ambi40.png","常人","word_first",""
"","","","","","html-keyboard-response","322","470804","0.0-13.0-1.0-1.0-0.0-1.6","null","<span class='add_' style='color:yellow; font-size: 70px;'> 太慢! </span>","null","","","","","","","","","","","","","","","","","","","","","","","feedback_test"
"","","","","","psychophysics","323","474570","0.0-13.0-1.0-1.0-0.0-0.7","null","","null","","","","","","","","","","","","","key","null","NaN","720","378","f","false","img/S_ambi40.png","常人","word_first",""
"","","","","","html-keyboard-response","324","475446","0.0-13.0-1.0-1.0-0.0-1.7","null","<span class='add_' style='color:yellow; font-size: 70px;'> 太慢! </span>","null","","","","","","","","","","","","","","","","","","","","","","","feedback_test"
"","","","","","psychophysics","325","478430","0.0-13.0-1.0-1.0-0.0-0.8","null","","null","","","","","","","","","","","","","key","null","NaN","720","378","j","false","img/C_ambi40.png","好人","word_first",""
"","","","","","html-keyboard-response","326","479848","0.0-13.0-1.0-1.0-0.0-1.8","null","<span class='add_' style='color:yellow; font-size: 70px;'> 太慢! </span>","null","","","","","","","","","","","","","","","","","","","","","","","feedback_test"
"","","","","","psychophysics","327","484136","0.0-13.0-1.0-1.0-0.0-0.9","null","","null","","","","","","","","","","","","","key","null","NaN","720","378","j","false","img/C_ambi40.png","好人","word_first",""
"","","","","","html-keyboard-response","328","486054","0.0-13.0-1.0-1.0-0.0-1.9","null","<span class='add_' style='color:yellow; font-size: 70px;'> 太慢! </span>","null","","","","","","","","","","","","","","","","","","","","","","","feedback_test"
"","","","","","psychophysics","329","489430","0.0-13.0-1.0-1.0-0.0-0.10","null","","null","","","","","","","","","","","","","key","null","NaN","720","378","j","false","img/S_ambi40.png","坏人","word_first",""
"","","","","","html-keyboard-response","330","490493","0.0-13.0-1.0-1.0-0.0-1.10","null","<span class='add_' style='color:yellow; font-size: 70px;'> 太慢! </span>","null","","","","","","","","","","","","","","","","","","","","","","","feedback_test"
"","","","","","psychophysics","331","493306","0.0-13.0-1.0-1.0-0.0-0.11","null","","null","","","","","","","","","","","","","key","null","NaN","720","378","f","false","img/T_ambi40.png","好人","word_first",""
"","","","","","html-keyboard-response","332","494990","0.0-13.0-1.0-1.0-0.0-1.11","null","<span class='add_' style='color:yellow; font-size: 70px;'> 太慢! </span>","null","","","","","","","","","","","","","","","","","","","","","","","feedback_test"
"","","","","","psychophysics","333","498861","0.0-13.0-1.0-1.0-0.0-0.12","null","","null","","","","","","","","","","","","","key","null","NaN","720","378","f","false","img/C_ambi40.png","坏人","word_first",""
"","","","","","html-keyboard-response","334","499430","0.0-13.0-1.0-1.0-0.0-1.12","null","<span class='add_' style='color:yellow; font-size: 70px;'> 太慢! </span>","null","","","","","","","","","","","","","","","","","","","","","","","feedback_test"
"","","","","","psychophysics","335","502324","0.0-13.0-1.0-1.0-0.0-0.13","null","","null","","","","","","","","","","","","","key","null","NaN","720","378","f","false","img/T_ambi40.png","坏人","word_first",""
"","","","","","html-keyboard-response","336","503980","0.0-13.0-1.0-1.0-0.0-1.13","null","<span class='add_' style='color:yellow; font-size: 70px;'> 太慢! </span>","null","","","","","","","","","","","","","","","","","","","","","","","feedback_test"
"","","","","","psychophysics","337","507610","0.0-13.0-1.0-1.0-0.0-0.14","null","","null","","","","","","","","","","","","","key","null","NaN","720","378","j","false","img/C_ambi40.png","好人","word_first",""
"","","","","","html-keyboard-response","338","508430","0.0-13.0-1.0-1.0-0.0-1.14","null","<span class='add_' style='color:yellow; font-size: 70px;'> 太慢! </span>","null","","","","","","","","","","","","","","","","","","","","","","","feedback_test"
"","","","","","psychophysics","339","511430","0.0-13.0-1.0-1.0-0.0-0.15","null","","null","","","","","","","","","","","","","key","null","NaN","720","378","j","false","img/S_ambi40.png","坏人","word_first",""
"","","","","","html-keyboard-response","340","512926","0.0-13.0-1.0-1.0-0.0-1.15","null","<span class='add_' style='color:yellow; font-size: 70px;'> 太慢! </span>","null","","","","","","","","","","","","","","","","","","","","","","","feedback_test"
"","","","","","psychophysics","341","517043","0.0-13.0-1.0-1.0-0.0-0.16","null","","null","","","","","","","","","","","","","key","null","NaN","720","378","f","false","img/C_ambi40.png","常人","word_first",""
"","","","","","html-keyboard-response","342","517525","0.0-13.0-1.0-1.0-0.0-1.16","null","<span class='add_' style='color:yellow; font-size: 70px;'> 太慢! </span>","null","","","","","","","","","","","","","","","","","","","","","","","feedback_test"
"","","","","","psychophysics","343","520624","0.0-13.0-1.0-1.0-0.0-0.17","null","","null","","","","","","","","","","","","","key","null","NaN","720","378","j","false","img/T_ambi40.png","常人","word_first",""
"","","","","","html-keyboard-response","344","521430","0.0-13.0-1.0-1.0-0.0-1.17","null","<span class='add_' style='color:yellow; font-size: 70px;'> 太慢! </span>","null","","","","","","","","","","","","","","","","","","","","","","","feedback_test"
"","","","","","psychophysics","345","524731","0.0-13.0-1.0-1.0-0.0-0.18","null","","null","","","","","","","","","","","","","key","null","NaN","720","378","f","false","img/S_ambi40.png","常人","word_first",""
"","","","","","html-keyboard-response","346","525775","0.0-13.0-1.0-1.0-0.0-1.18","null","<span class='add_' style='color:yellow; font-size: 70px;'> 太慢! </span>","null","","","","","","","","","","","","","","","","","","","","","","","feedback_test"
"","","","","","psychophysics","347","528867","0.0-13.0-1.0-1.0-0.0-0.19","null","","null","","","","","","","","","","","","","key","null","NaN","720","378","j","false","img/S_ambi40.png","坏人","word_first",""
"","","","","","html-keyboard-response","348","529462","0.0-13.0-1.0-1.0-0.0-1.19","null","<span class='add_' style='color:yellow; font-size: 70px;'> 太慢! </span>","null","","","","","","","","","","","","","","","","","","","","","","","feedback_test"
"","","","","","psychophysics","349","532285","0.0-13.0-1.0-1.0-0.0-0.20","null","","null","","","","","","","","","","","","","key","null","NaN","720","378","j","false","img/T_ambi40.png","常人","word_first",""
"","","","","","html-keyboard-response","350","533430","0.0-13.0-1.0-1.0-0.0-1.20","null","<span class='add_' style='color:yellow; font-size: 70px;'> 太慢! </span>","null","","","","","","","","","","","","","","","","","","","","","","","feedback_test"
"","","","","","psychophysics","351","536431","0.0-13.0-1.0-1.0-0.0-0.21","null","","null","","","","","","","","","","","","","key","null","NaN","720","378","j","false","img/C_ambi40.png","好人","word_first",""
"","","","","","html-keyboard-response","352","537924","0.0-13.0-1.0-1.0-0.0-1.21","null","<span class='add_' style='color:yellow; font-size: 70px;'> 太慢! </span>","null","","","","","","","","","","","","","","","","","","","","","","","feedback_test"
"","","","","","psychophysics","353","541694","0.0-13.0-1.0-1.0-0.0-0.22","null","","null","","","","","","","","","","","","","key","null","NaN","720","378","f","false","img/T_ambi40.png","好人","word_first",""
"","","","","","html-keyboard-response","354","542790","0.0-13.0-1.0-1.0-0.0-1.22","null","<span class='add_' style='color:yellow; font-size: 70px;'> 太慢! </span>","null","","","","","","","","","","","","","","","","","","","","","","","feedback_test"
"","","","","","psychophysics","355","546430","0.0-13.0-1.0-1.0-0.0-0.23","null","","null","","","","","","","","","","","","","key","null","NaN","720","378","f","false","img/S_ambi40.png","好人","word_first",""
"","","","","","html-keyboard-response","356","547543","0.0-13.0-1.0-1.0-0.0-1.23","null","<span class='add_' style='color:yellow; font-size: 70px;'> 太慢! </span>","null","","","","","","","","","","","","","","","","","","","","","","","feedback_test"
"","","","","","psychophysics","357","550364","0.0-13.0-1.0-1.0-0.0-0.24","null","","null","","","","","","","","","","","","","key","null","NaN","720","378","j","false","img/T_ambi40.png","常人","word_first",""
"","","","","","html-keyboard-response","358","551941","0.0-13.0-1.0-1.0-0.0-1.24","null","<span class='add_' style='color:yellow; font-size: 70px;'> 太慢! </span>","null","","","","","","","","","","","","","","","","","","","","","","","feedback_test"
"","","","","","psychophysics","359","555672","0.0-13.0-1.0-1.0-0.0-0.25","null","","null","","","","","","","","","","","","","key","null","NaN","720","378","f","false","img/S_ambi40.png","常人","word_first",""
"","","","","","html-keyboard-response","360","556430","0.0-13.0-1.0-1.0-0.0-1.25","null","<span class='add_' style='color:yellow; font-size: 70px;'> 太慢! </span>","null","","","","","","","","","","","","","","","","","","","","","","","feedback_test"
"","","","","","psychophysics","361","559417","0.0-13.0-1.0-1.0-0.0-0.26","null","","null","","","","","","","","","","","","","key","null","NaN","720","378","f","false","img/T_ambi40.png","坏人","word_first",""
"","","","","","html-keyboard-response","362","560934","0.0-13.0-1.0-1.0-0.0-1.26","null","<span class='add_' style='color:yellow; font-size: 70px;'> 太慢! </span>","null","","","","","","","","","","","","","","","","","","","","","","","feedback_test"
"","","","","","psychophysics","363","564590","0.0-13.0-1.0-1.0-0.0-0.27","null","","null","","","","","","","","","","","","","key","null","NaN","720","378","j","false","img/T_ambi40.png","常人","word_first",""
"","","","","","html-keyboard-response","364","565429","0.0-13.0-1.0-1.0-0.0-1.27","null","<span class='add_' style='color:yellow; font-size: 70px;'> 太慢! </span>","null","","","","","","","","","","","","","","","","","","","","","","","feedback_test"
"","","","","","psychophysics","365","568461","0.0-13.0-1.0-1.0-0.0-0.28","null","","null","","","","","","","","","","","","","key","null","NaN","720","378","j","false","img/C_ambi40.png","好人","word_first",""
"","","","","","html-keyboard-response","366","569911","0.0-13.0-1.0-1.0-0.0-1.28","null","<span class='add_' style='color:yellow; font-size: 70px;'> 太慢! </span>","null","","","","","","","","","","","","","","","","","","","","","","","feedback_test"
"","","","","","psychophysics","367","574048","0.0-13.0-1.0-1.0-0.0-0.29","null","","null","","","","","","","","","","","","","key","null","NaN","720","378","f","false","img/C_ambi40.png","常人","word_first",""
"","","","","","html-keyboard-response","368","574510","0.0-13.0-1.0-1.0-0.0-1.29","null","<span class='add_' style='color:yellow; font-size: 70px;'> 太慢! </span>","null","","","","","","","","","","","","","","","","","","","","","","","feedback_test"
"","","","","","psychophysics","369","577884","0.0-13.0-1.0-1.0-0.0-0.30","null","","null","","","","","","","","","","","","","key","null","NaN","720","378","f","false","img/S_ambi40.png","好人","word_first",""
"","","","","","html-keyboard-response","370","578431","0.0-13.0-1.0-1.0-0.0-1.30","null","<span class='add_' style='color:yellow; font-size: 70px;'> 太慢! </span>","null","","","","","","","","","","","","","","","","","","","","","","","feedback_test"
"","","","","","psychophysics","371","581420","0.0-13.0-1.0-1.0-0.0-0.31","null","","null","","","","","","","","","","","","","key","null","NaN","720","378","j","false","img/S_ambi40.png","坏人","word_first",""
"","","","","","html-keyboard-response","372","582929","0.0-13.0-1.0-1.0-0.0-1.31","null","<span class='add_' style='color:yellow; font-size: 70px;'> 太慢! </span>","null","","","","","","","","","","","","","","","","","","","","","","","feedback_test"
"","","","","","psychophysics","373","586429","0.0-13.0-1.0-1.0-0.0-0.32","null","","null","","","","","","","","","","","","","key","null","NaN","720","378","j","false","img/C_ambi40.png","好人","word_first",""
"","","","","","html-keyboard-response","374","587929","0.0-13.0-1.0-1.0-0.0-1.32","null","<span class='add_' style='color:yellow; font-size: 70px;'> 太慢! </span>","null","","","","","","","","","","","","","","","","","","","","","","","feedback_test"
"","","","","","psychophysics","375","591860","0.0-13.0-1.0-1.0-0.0-0.33","null","","null","","","","","","","","","","","","","key","null","NaN","720","378","f","false","img/C_ambi40.png","坏人","word_first",""
"","","","","","html-keyboard-response","376","592429","0.0-13.0-1.0-1.0-0.0-1.33","null","<span class='add_' style='color:yellow; font-size: 70px;'> 太慢! </span>","null","","","","","","","","","","","","","","","","","","","","","","","feedback_test"
"","","","","","psychophysics","377","595429","0.0-13.0-1.0-1.0-0.0-0.34","null","","null","","","","","","","","","","","","","key","null","NaN","720","378","j","false","img/S_ambi40.png","坏人","word_first",""
"","","","","","html-keyboard-response","378","596031","0.0-13.0-1.0-1.0-0.0-1.34","null","<span class='add_' style='color:yellow; font-size: 70px;'> 太慢! </span>","null","","","","","","","","","","","","","","","","","","","","","","","feedback_test"
"","","","","","psychophysics","379","598683","0.0-13.0-1.0-1.0-0.0-0.35","null","","null","","","","","","","","","","","","","key","null","16.66600000000022","720","378","f","false","img/T_ambi40.png","好人","word_first",""
"","","","","","html-keyboard-response","380","598988","0.0-13.0-1.0-1.0-0.0-1.35","null","<span class='add_' style='color:yellow; font-size: 70px;'> 太慢! </span>","null","","","","","","","","","","","","","","","","","","","","","","","feedback_test"
"","","","","","psychophysics","381","600450","0.0-13.0-1.0-1.0-0.0-0.36","309","","j","","","","","","","","","","","","","key","j","16.66599999999947","720","378","j","true","img/C_ambi40.png","好人","word_first",""
"","","","","","html-keyboard-response","382","600753","0.0-13.0-1.0-1.0-0.0-1.36","null","<span style='color:GreenYellow; font-size: 70px;'>正确! </span>","null","","","","","","","","","","","","","","","","","","","","","","","feedback_test"
"","","","","","psychophysics","383","601967","0.0-13.0-1.0-1.0-0.0-0.37","62","","j","","","","","","","","","","","","","key","j","16.665999999999055","720","378","f","false","img/C_ambi40.png","常人","word_first",""
"","","","","","html-keyboard-response","384","602272","0.0-13.0-1.0-1.0-0.0-1.37","null","<span style='color:yellow; font-size: 70px;'>过快! </span>","null","","","","","","","","","","","","","","","","","","","","","","","feedback_test"
"","","","","","psychophysics","385","603600","0.0-13.0-1.0-1.0-0.0-0.38","177","","j","","","","","","","","","","","","","key","j","16.665999999999677","720","378","j","true","img/C_ambi40.png","好人","word_first",""
"","","","","","html-keyboard-response","386","603906","0.0-13.0-1.0-1.0-0.0-1.38","null","<span style='color:yellow; font-size: 70px;'>过快! </span>","null","","","","","","","","","","","","","","","","","","","","","","","feedback_test"
"","","","","","psychophysics","387","605292","0.0-13.0-1.0-1.0-0.0-0.39","235","","j","","","","","","","","","","","","","key","j","16.67148780487847","720","378","f","false","img/T_ambi40.png","好人","word_first",""
"","","","","","html-keyboard-response","388","605595","0.0-13.0-1.0-1.0-0.0-1.39","null","<span style='color:red; font-size: 70px;'>错误! </span>","null","","","","","","","","","","","","","","","","","","","","","","","feedback_test"
"","","","","","psychophysics","389","607212","0.0-13.0-1.0-1.0-0.0-0.40","465","","j","","","","","","","","","","","","","key","j","16.665999999999865","720","378","f","false","img/T_ambi40.png","坏人","word_first",""
"","","","","","html-keyboard-response","390","607513","0.0-13.0-1.0-1.0-0.0-1.40","null","<span style='color:red; font-size: 70px;'>错误! </span>","null","","","","","","","","","","","","","","","","","","","","","","","feedback_test"
"","","","","","psychophysics","391","609162","0.0-13.0-1.0-1.0-0.0-0.41","497","","j","","","","","","","","","","","","","key","j","16.66600000000041","720","378","j","true","img/T_ambi40.png","常人","word_first",""
"","","","","","html-keyboard-response","392","609465","0.0-13.0-1.0-1.0-0.0-1.41","null","<span style='color:GreenYellow; font-size: 70px;'>正确! </span>","null","","","","","","","","","","","","","","","","","","","","","","","feedback_test"
"","","","","","psychophysics","393","611201","0.0-13.0-1.0-1.0-0.0-0.42","584","","j","","","","","","","","","","","","","key","j","16.665999999999983","720","378","j","true","img/S_ambi40.png","坏人","word_first",""
"","","","","","html-keyboard-response","394","611503","0.0-13.0-1.0-1.0-0.0-1.42","null","<span style='color:GreenYellow; font-size: 70px;'>正确! </span>","null","","","","","","","","","","","","","","","","","","","","","","","feedback_test"
"","","","","","psychophysics","395","612901","0.0-13.0-1.0-1.0-0.0-0.43","247","","j","","","","","","","","","","","","","key","j","16.666000000000594","720","378","f","false","img/S_ambi40.png","常人","word_first",""
"","","","","","html-keyboard-response","396","613207","0.0-13.0-1.0-1.0-0.0-1.43","null","<span style='color:red; font-size: 70px;'>错误! </span>","null","","","","","","","","","","","","","","","","","","","","","","","feedback_test"
"","","","","","psychophysics","397","614534","0.0-13.0-1.0-1.0-0.0-0.44","177","","j","","","","","","","","","","","","","key","j","16.66600000000117","720","378","j","true","img/T_ambi40.png","常人","word_first",""
"","","","","","html-keyboard-response","398","614840","0.0-13.0-1.0-1.0-0.0-1.44","null","<span style='color:yellow; font-size: 70px;'>过快! </span>","null","","","","","","","","","","","","","","","","","","","","","","","feedback_test"
"","","","","","psychophysics","399","618548","0.0-13.0-1.0-1.0-0.0-0.45","null","","null","","","","","","","","","","","","","key","null","16.66599999999947","720","378","f","false","img/C_ambi40.png","坏人","word_first",""
"","","","","","html-keyboard-response","400","619789","0.0-13.0-1.0-1.0-0.0-1.45","null","<span class='add_' style='color:yellow; font-size: 70px;'> 太慢! </span>","null","","","","","","","","","","","","","","","","","","","","","","","feedback_test"
"","","","","","psychophysics","401","622590","0.0-13.0-1.0-1.0-0.0-0.46","null","","null","","","","","","","","","","","","","key","null","NaN","720","378","f","false","img/S_ambi40.png","好人","word_first",""
"","","","","","html-keyboard-response","402","623823","0.0-13.0-1.0-1.0-0.0-1.46","null","<span class='add_' style='color:yellow; font-size: 70px;'> 太慢! </span>","null","","","","","","","","","","","","","","","","","","","","","","","feedback_test"
"","","","","","psychophysics","403","626724","0.0-13.0-1.0-1.0-0.0-0.47","null","","null","","","","","","","","","","","","","key","null","NaN","720","378","j","false","img/S_ambi40.png","坏人","word_first",""
"","","","","","html-keyboard-response","404","627589","0.0-13.0-1.0-1.0-0.0-1.47","null","<span class='add_' style='color:yellow; font-size: 70px;'> 太慢! </span>","null","","","","","","","","","","","","","","","","","","","","","","","feedback_test"
"","","","","","psychophysics","405","630840","0.0-13.0-1.0-1.0-0.0-0.48","null","","null","","","","","","","","","","","","","key","null","NaN","720","378","f","false","img/C_ambi40.png","常人","word_first",""
"","","","","","html-keyboard-response","406","631722","0.0-13.0-1.0-1.0-0.0-1.48","null","<span class='add_' style='color:yellow; font-size: 70px;'> 太慢! </span>","null","","","","","","","","","","","","","","","","","","","","","","","feedback_test"
"","","","","","psychophysics","407","634499","0.0-13.0-1.0-1.0-0.0-0.49","null","","null","","","","","","","","","","","","","key","null","NaN","720","378","f","false","img/S_ambi40.png","好人","word_first",""
"","","","","","html-keyboard-response","408","635893","0.0-13.0-1.0-1.0-0.0-1.49","null","<span class='add_' style='color:yellow; font-size: 70px;'> 太慢! </span>","null","","","","","","","","","","","","","","","","","","","","","","","feedback_test"
"","","","","","psychophysics","409","640129","0.0-13.0-1.0-1.0-0.0-0.50","null","","null","","","","","","","","","","","","","key","null","NaN","720","378","f","false","img/T_ambi40.png","好人","word_first",""
"","","","","","html-keyboard-response","410","642043","0.0-13.0-1.0-1.0-0.0-1.50","null","<span class='add_' style='color:yellow; font-size: 70px;'> 太慢! </span>","null","","","","","","","","","","","","","","","","","","","","","","","feedback_test"
"","","","","","psychophysics","411","646122","0.0-13.0-1.0-1.0-0.0-0.51","null","","null","","","","","","","","","","","","","key","null","NaN","720","378","f","false","img/S_ambi40.png","常人","word_first",""
"","","","","","html-keyboard-response","412","646575","0.0-13.0-1.0-1.0-0.0-1.51","null","<span class='add_' style='color:yellow; font-size: 70px;'> 太慢! </span>","null","","","","","","","","","","","","","","","","","","","","","","","feedback_test"
"","","","","","psychophysics","413","649819","0.0-13.0-1.0-1.0-0.0-0.52","null","","null","","","","","","","","","","","","","key","null","NaN","720","378","j","false","img/C_ambi40.png","好人","word_first",""
"","","","","","html-keyboard-response","414","650724","0.0-13.0-1.0-1.0-0.0-1.52","null","<span class='add_' style='color:yellow; font-size: 70px;'> 太慢! </span>","null","","","","","","","","","","","","","","","","","","","","","","","feedback_test"
"","","","","","psychophysics","415","653543","0.0-13.0-1.0-1.0-0.0-0.53","null","","null","","","","","","","","","","","","","key","null","NaN","720","378","j","false","img/T_ambi40.png","常人","word_first",""
"","","","","","html-keyboard-response","416","654870","0.0-13.0-1.0-1.0-0.0-1.53","null","<span class='add_' style='color:yellow; font-size: 70px;'> 太慢! </span>","null","","","","","","","","","","","","","","","","","","","","","","","feedback_test"
"","","","","","psychophysics","417","658945","0.0-13.0-1.0-1.0-0.0-0.54","null","","null","","","","","","","","","","","","","key","null","NaN","720","378","j","false","img/T_ambi40.png","常人","word_first",""
"","","","","","html-keyboard-response","418","659602","0.0-13.0-1.0-1.0-0.0-1.54","null","<span class='add_' style='color:yellow; font-size: 70px;'> 太慢! </span>","null","","","","","","","","","","","","","","","","","","","","","","","feedback_test"
"","","","","","psychophysics","419","662333","0.0-13.0-1.0-1.0-0.0-0.55","null","","null","","","","","","","","","","","","","key","null","NaN","720","378","j","false","img/S_ambi40.png","坏人","word_first",""
"","","","","","html-keyboard-response","420","663972","0.0-13.0-1.0-1.0-0.0-1.55","null","<span class='add_' style='color:yellow; font-size: 70px;'> 太慢! </span>","null","","","","","","","","","","","","","","","","","","","","","","","feedback_test"
"","","","","","psychophysics","421","667429","0.0-13.0-1.0-1.0-0.0-0.56","null","","null","","","","","","","","","","","","","key","null","NaN","720","378","j","false","img/S_ambi40.png","坏人","word_first",""
"","","","","","html-keyboard-response","422","668915","0.0-13.0-1.0-1.0-0.0-1.56","null","<span class='add_' style='color:yellow; font-size: 70px;'> 太慢! </span>","null","","","","","","","","","","","","","","","","","","","","","","","feedback_test"
"","","","","","psychophysics","423","673094","0.0-13.0-1.0-1.0-0.0-0.57","null","","null","","","","","","","","","","","","","key","null","NaN","720","378","j","false","img/C_ambi40.png","好人","word_first",""
"","","","","","html-keyboard-response","424","673595","0.0-13.0-1.0-1.0-0.0-1.57","null","<span class='add_' style='color:yellow; font-size: 70px;'> 太慢! </span>","null","","","","","","","","","","","","","","","","","","","","","","","feedback_test"
"","","","","","psychophysics","425","676721","0.0-13.0-1.0-1.0-0.0-0.58","null","","null","","","","","","","","","","","","","key","null","NaN","720","378","f","false","img/C_ambi40.png","坏人","word_first",""
"","","","","","html-keyboard-response","426","677780","0.0-13.0-1.0-1.0-0.0-1.58","null","<span class='add_' style='color:yellow; font-size: 70px;'> 太慢! </span>","null","","","","","","","","","","","","","","","","","","","","","","","feedback_test"
"","","","","","psychophysics","427","682193","0.0-13.0-1.0-1.0-0.0-0.59","null","","null","","","","","","","","","","","","","key","null","NaN","720","378","f","false","img/T_ambi40.png","坏人","word_first",""
"","","","","","html-keyboard-response","428","684043","0.0-13.0-1.0-1.0-0.0-1.59","null","<span class='add_' style='color:yellow; font-size: 70px;'> 太慢! </span>","null","","","","","","","","","","","","","","","","","","","","","","","feedback_test"
"","","","","","psychophysics","429","687948","0.0-13.0-1.0-1.0-0.0-0.60","null","","null","","","","","","","","","","","","","key","null","NaN","720","378","j","false","img/S_ambi40.png","坏人","word_first",""
