"success","timeout","failed_images","failed_audio","failed_video","trial_type","trial_index","time_elapsed","internal_node_id","rt","stimulus","response","value","item_width_mm","item_height_mm","item_width_px","px2mm","view_dist_mm","item_width_deg","px2deg","scale_factor","win_width_deg","win_height_deg","view_history","response_type","key_press","avg_frame_time","center_x","center_y","correct_response","correct","Image","word","condition","screen_id"
"true","false","[]","[]","[]","preload","0","1730","0.0-0.0","","","","","","","","","","","","","","","","","","","","","","","","","",""
"","","","","","html-keyboard-response","1","34180","0.0-1.0","32450","
     <p>您好，欢迎参加本次实验。</p>
     <p>为充分保障您的权利，请确保您已经知晓并同意《参与实验同意书》以及《数据公开知情同意书》。</p>
     <p>如果您未见过上述内容，请咨询实验员。</p>
     <p>如果您选择继续实验，则表示您已经清楚两份知情同意书的内容并同意。</p>
     <p> <div style = ""color: green""><按任意键至下页></div> </p>
     ","enter","","","","","","","","","","","","","","","","","","","","","","",""
"","","","","","html-keyboard-response","2","35184","0.0-2.0","1004","
     <p>本实验首先需要您填写一些基本个人信息。</p>
     <p> <div style = ""color: green""><按任意键至下页></div></p>
     ","enter","","","","","","","","","","","","","","","","","","","","","","",""
"","","","","","call-function","3","35185","0.0-3.0-0.0","","","","","","","","","","","","","","","","","","","","","","","","","",""
"","","","","","survey-html-form","4","40504","0.0-3.0-1.0","5316","","{""Q0"":""7""}","","","","","","","","","","","","","","","","","","","","","","",""
"","","","","","html-button-response","5","41762","0.0-3.0-2.0","1257","<p style = 'color : white'>您的性别</p>","1","","","","","","","","","","","","","","","","","","","","","","",""
"","","","","","survey-html-form","6","46351","0.0-3.0-3.0","4588","","{""Q0"":""1999""}","","","","","","","","","","","","","","","","","","","","","","",""
"","","","","","survey-html-form","7","49327","0.0-3.0-4.0","2974","","{""Q0"":""5""}","","","","","","","","","","","","","","","","","","","","","","",""
"","","","","","virtual-chinrest","8","214075","0.0-4.0","164745","","","","85.6","53.98","548.5098567355875","6.414776290636531","445.71","10.97019713471175","50","0.6453849382157008","25.6","11.54","","","","","","","","","","","",""
"true","","","","","fullscreen","9","217619","0.0-5.0","","","","","","","","","","","","","","","","","","","","","","","","","",""
"","","","","","instructions","10","312356","0.0-6.0","94736","","","","","","","","","","","","","","[{""page_index"":0,""viewing_time"":6056},{""page_index"":1,""viewing_time"":63308},{""page_index"":2,""viewing_time"":20434},{""page_index"":3,""viewing_time"":4936}]","","","","","","","","","","",""
"","","","","","psychophysics","11","315032","0.0-7.0-0.0-0.0","null","","null","","","","","","","","","","","","","key","null","16.865248407643204","640","356","f","false","img/C_ambi40.png","坏人","prac_image_first",""
"","","","","","html-keyboard-response","12","315351","0.0-7.0-0.0-1.0","null","<span class='add_' style='color:yellow; font-size: 70px;'> 太慢! </span>","null","","","","","","","","","","","","","","","","","","","","","","","feedback_test"
"","","","","","psychophysics","13","318009","0.0-7.0-0.0-0.1","null","","null","","","","","","","","","","","","","key","null","16.653316455696125","640","356","j","false","img/C_ambi40.png","好人","prac_image_first",""
"","","","","","html-keyboard-response","14","318320","0.0-7.0-0.0-1.1","null","<span class='add_' style='color:yellow; font-size: 70px;'> 太慢! </span>","null","","","","","","","","","","","","","","","","","","","","","","","feedback_test"
"","","","","","psychophysics","15","320171","0.0-7.0-0.0-0.2","697","","f","","","","","","","","","","","","","key","f","16.654027272727003","640","356","j","false","img/S_ambi40.png","坏人","prac_image_first",""
"","","","","","html-keyboard-response","16","320488","0.0-7.0-0.0-1.2","null","<span style='color:red; font-size: 70px;'>错误! </span>","null","","","","","","","","","","","","","","","","","","","","","","","feedback_test"
"","","","","","psychophysics","17","322425","0.0-7.0-0.0-0.3","785","","j","","","","","","","","","","","","","key","j","16.524452173912838","640","356","j","true","img/S_ambi40.png","坏人","prac_image_first",""
"","","","","","html-keyboard-response","18","322746","0.0-7.0-0.0-1.3","null","<span style='color:GreenYellow; font-size: 70px;'>正确! </span>","null","","","","","","","","","","","","","","","","","","","","","","","feedback_test"
"","","","","","psychophysics","19","324485","0.0-7.0-0.0-0.4","582","","j","","","","","","","","","","","","","key","j","16.65194174757304","640","356","f","false","img/T_ambi40.png","坏人","prac_image_first",""
"","","","","","html-keyboard-response","20","324803","0.0-7.0-0.0-1.4","null","<span style='color:red; font-size: 70px;'>错误! </span>","null","","","","","","","","","","","","","","","","","","","","","","","feedback_test"
"","","","","","psychophysics","21","326649","0.0-7.0-0.0-0.5","681","","j","","","","","","","","","","","","","key","j","16.65308256880722","640","356","j","true","img/C_ambi40.png","好人","prac_image_first",""
"","","","","","html-keyboard-response","22","326971","0.0-7.0-0.0-1.5","null","<span style='color:GreenYellow; font-size: 70px;'>正确! </span>","null","","","","","","","","","","","","","","","","","","","","","","","feedback_test"
"","","","","","psychophysics","23","328907","0.0-7.0-0.0-0.6","780","","f","","","","","","","","","","","","","key","f","16.654565217391507","640","356","f","true","img/S_ambi40.png","好人","prac_image_first",""
"","","","","","html-keyboard-response","24","329218","0.0-7.0-0.0-1.6","null","<span style='color:GreenYellow; font-size: 70px;'>正确! </span>","null","","","","","","","","","","","","","","","","","","","","","","","feedback_test"
"","","","","","psychophysics","25","331228","0.0-7.0-0.0-0.7","847","","f","","","","","","","","","","","","","key","f","16.653647058823893","640","356","f","true","img/T_ambi40.png","好人","prac_image_first",""
"","","","","","html-keyboard-response","26","331538","0.0-7.0-0.0-1.7","null","<span style='color:GreenYellow; font-size: 70px;'>正确! </span>","null","","","","","","","","","","","","","","","","","","","","","","","feedback_test"
"","","","","","psychophysics","27","333407","0.0-7.0-0.0-0.8","711","","f","","","","","","","","","","","","","key","f","16.653081081080803","640","356","f","true","img/C_ambi40.png","常人","prac_image_first",""
"","","","","","html-keyboard-response","28","333716","0.0-7.0-0.0-1.8","null","<span style='color:GreenYellow; font-size: 70px;'>正确! </span>","null","","","","","","","","","","","","","","","","","","","","","","","feedback_test"
"","","","","","psychophysics","29","335864","0.0-7.0-0.0-0.9","994","","j","","","","","","","","","","","","","key","j","16.65310156250007","640","356","f","false","img/S_ambi40.png","常人","prac_image_first",""
"","","","","","html-keyboard-response","30","336175","0.0-7.0-0.0-1.9","null","<span style='color:red; font-size: 70px;'>错误! </span>","null","","","","","","","","","","","","","","","","","","","","","","","feedback_test"
"","","","","","psychophysics","31","338229","0.0-7.0-0.0-0.10","901","","j","","","","","","","","","","","","","key","j","16.652959016393144","640","356","j","true","img/T_ambi40.png","常人","prac_image_first",""
"","","","","","html-keyboard-response","32","338544","0.0-7.0-0.0-1.10","null","<span style='color:GreenYellow; font-size: 70px;'>正确! </span>","null","","","","","","","","","","","","","","","","","","","","","","","feedback_test"
"","","","","","psychophysics","33","340243","0.0-7.0-0.0-0.11","536","","f","","","","","","","","","","","","","key","f","16.652712871287118","640","356","j","false","img/T_ambi40.png","常人","prac_image_first",""
"","","","","","html-keyboard-response","34","340554","0.0-7.0-0.0-1.11","null","<span style='color:red; font-size: 70px;'>错误! </span>","null","","","","","","","","","","","","","","","","","","","","","","","feedback_test"
"","","","","","psychophysics","35","342328","0.0-7.0-0.0-0.12","608","","f","","","","","","","","","","","","","key","f","16.52711428571437","640","356","f","true","img/C_ambi40.png","常人","prac_image_first",""
"","","","","","html-keyboard-response","36","342649","0.0-7.0-0.0-1.12","null","<span style='color:GreenYellow; font-size: 70px;'>正确! </span>","null","","","","","","","","","","","","","","","","","","","","","","","feedback_test"
"","","","","","psychophysics","37","344626","0.0-7.0-0.0-0.13","821","","j","","","","","","","","","","","","","key","j","16.653381355932098","640","356","j","true","img/S_ambi40.png","坏人","prac_image_first",""
"","","","","","html-keyboard-response","38","344934","0.0-7.0-0.0-1.13","null","<span style='color:GreenYellow; font-size: 70px;'>正确! </span>","null","","","","","","","","","","","","","","","","","","","","","","","feedback_test"
"","","","","","psychophysics","39","346737","0.0-7.0-0.0-0.14","650","","f","","","","","","","","","","","","","key","f","16.532224299065728","640","356","f","true","img/C_ambi40.png","坏人","prac_image_first",""
"","","","","","html-keyboard-response","40","347047","0.0-7.0-0.0-1.14","null","<span style='color:GreenYellow; font-size: 70px;'>正确! </span>","null","","","","","","","","","","","","","","","","","","","","","","","feedback_test"
"","","","","","psychophysics","41","349174","0.0-7.0-0.0-0.15","975","","f","","","","","","","","","","","","","key","f","16.653244094488187","640","356","j","false","img/S_ambi40.png","坏人","prac_image_first",""
"","","","","","html-keyboard-response","42","349491","0.0-7.0-0.0-1.15","null","<span style='color:red; font-size: 70px;'>错误! </span>","null","","","","","","","","","","","","","","","","","","","","","","","feedback_test"
"","","","","","psychophysics","43","351572","0.0-7.0-0.0-0.16","925","","j","","","","","","","","","","","","","key","j","16.653048387096796","640","356","j","true","img/T_ambi40.png","常人","prac_image_first",""
"","","","","","html-keyboard-response","44","351886","0.0-7.0-0.0-1.16","null","<span style='color:GreenYellow; font-size: 70px;'>正确! </span>","null","","","","","","","","","","","","","","","","","","","","","","","feedback_test"
"","","","","","psychophysics","45","353752","0.0-7.0-0.0-0.17","706","","f","","","","","","","","","","","","","key","f","16.652765765765718","640","356","f","true","img/T_ambi40.png","坏人","prac_image_first",""
"","","","","","html-keyboard-response","46","354076","0.0-7.0-0.0-1.17","null","<span style='color:GreenYellow; font-size: 70px;'>正确! </span>","null","","","","","","","","","","","","","","","","","","","","","","","feedback_test"
"","","","","","psychophysics","47","355894","0.0-7.0-0.0-0.18","663","","j","","","","","","","","","","","","","key","j","16.535850467289816","640","356","f","false","img/S_ambi40.png","好人","prac_image_first",""
"","","","","","html-keyboard-response","48","356201","0.0-7.0-0.0-1.18","null","<span style='color:red; font-size: 70px;'>错误! </span>","null","","","","","","","","","","","","","","","","","","","","","","","feedback_test"
"","","","","","psychophysics","49","358052","0.0-7.0-0.0-0.19","687","","f","","","","","","","","","","","","","key","f","16.651809090908763","640","356","f","true","img/T_ambi40.png","好人","prac_image_first",""
"","","","","","html-keyboard-response","50","358363","0.0-7.0-0.0-1.19","null","<span style='color:GreenYellow; font-size: 70px;'>正确! </span>","null","","","","","","","","","","","","","","","","","","","","","","","feedback_test"
"","","","","","psychophysics","51","360204","0.0-7.0-0.0-0.20","682","","j","","","","","","","","","","","","","key","j","16.652082568807785","640","356","j","true","img/C_ambi40.png","好人","prac_image_first",""
"","","","","","html-keyboard-response","52","360519","0.0-7.0-0.0-1.20","null","<span style='color:GreenYellow; font-size: 70px;'>正确! </span>","null","","","","","","","","","","","","","","","","","","","","","","","feedback_test"
"","","","","","psychophysics","53","362244","0.0-7.0-0.0-0.21","571","","f","","","","","","","","","","","","","key","f","16.652961165048588","640","356","j","false","img/C_ambi40.png","好人","prac_image_first",""
"","","","","","html-keyboard-response","54","362556","0.0-7.0-0.0-1.21","null","<span style='color:red; font-size: 70px;'>错误! </span>","null","","","","","","","","","","","","","","","","","","","","","","","feedback_test"
"","","","","","psychophysics","55","364298","0.0-7.0-0.0-0.22","581","","f","","","","","","","","","","","","","key","f","16.6530388349518","640","356","f","true","img/S_ambi40.png","常人","prac_image_first",""
"","","","","","html-keyboard-response","56","364615","0.0-7.0-0.0-1.22","null","<span style='color:GreenYellow; font-size: 70px;'>正确! </span>","null","","","","","","","","","","","","","","","","","","","","","","","feedback_test"
"","","","","","psychophysics","57","366762","0.0-7.0-0.0-0.23","994","","j","","","","","","","","","","","","","key","j","16.652804687500065","640","356","j","true","img/T_ambi40.png","常人","prac_image_first",""
"","","","","","html-keyboard-response","58","367075","0.0-7.0-0.0-1.23","null","<span style='color:GreenYellow; font-size: 70px;'>正确! </span>","null","","","","","","","","","","","","","","","","","","","","","","","feedback_test"
"","","","","","html-keyboard-response","59","370315","0.0-8.0","3234","<style>.context{color:white; font-size: 35px; line-height:40px}</style>                              <div><p class='context'>您正确回答了63% 的试次。</p><p class='context'>您的平均反应时为757毫秒。</p><p class='context'>恭喜您完成这一阶段的练习。按任意键进入<span style='color: yellow;'>先文字后图形条件</span>的练习。</p></div>","enter","","","","","","","","","","","","","","","","","","","","","","",""
"","","","","","psychophysics","60","372387","0.0-9.0-0.0-0.0","906","","f","","","","","","","","","","","","","key","f","16.65352032520303","640","356","j","false","img/T_ambi40.png","常人","prac_word_first",""
"","","","","","html-keyboard-response","61","372698","0.0-9.0-0.0-1.0","null","<span style='color:red; font-size: 70px;'>错误! </span>","null","","","","","","","","","","","","","","","","","","","","","","","feedback_test"
"","","","","","psychophysics","62","375362","0.0-9.0-0.0-0.1","null","","null","","","","","","","","","","","","","key","null","16.652930379746838","640","356","j","false","img/S_ambi40.png","坏人","prac_word_first",""
"","","","","","html-keyboard-response","63","375671","0.0-9.0-0.0-1.1","null","<span class='add_' style='color:yellow; font-size: 70px;'> 太慢! </span>","null","","","","","","","","","","","","","","","","","","","","","","","feedback_test"
"","","","","","psychophysics","64","377425","0.0-9.0-0.0-0.2","599","","j","","","","","","","","","","","","","key","j","16.653153846153984","640","356","f","false","img/S_ambi40.png","好人","prac_word_first",""
"","","","","","html-keyboard-response","65","377741","0.0-9.0-0.0-1.2","null","<span style='color:red; font-size: 70px;'>错误! </span>","null","","","","","","","","","","","","","","","","","","","","","","","feedback_test"
"","","","","","psychophysics","66","379697","0.0-9.0-0.0-0.3","788","","f","","","","","","","","","","","","","key","f","16.651373913043443","640","356","f","true","img/T_ambi40.png","坏人","prac_word_first",""
"","","","","","html-keyboard-response","67","380007","0.0-9.0-0.0-1.3","null","<span style='color:GreenYellow; font-size: 70px;'>正确! </span>","null","","","","","","","","","","","","","","","","","","","","","","","feedback_test"
"","","","","","psychophysics","68","382217","0.0-9.0-0.0-0.4","1045","","f","","","","","","","","","","","","","key","f","16.653213740457986","640","356","j","false","img/T_ambi40.png","常人","prac_word_first",""
"","","","","","html-keyboard-response","69","382538","0.0-9.0-0.0-1.4","null","<span style='color:red; font-size: 70px;'>错误! </span>","null","","","","","","","","","","","","","","","","","","","","","","","feedback_test"
"","","","","","psychophysics","70","384322","0.0-9.0-0.0-0.5","632","","j","","","","","","","","","","","","","key","j","16.653377358490307","640","356","j","true","img/C_ambi40.png","好人","prac_word_first",""
"","","","","","html-keyboard-response","71","384637","0.0-9.0-0.0-1.5","null","<span style='color:GreenYellow; font-size: 70px;'>正确! </span>","null","","","","","","","","","","","","","","","","","","","","","","","feedback_test"
"","","","","","psychophysics","72","386460","0.0-9.0-0.0-0.6","658","","j","","","","","","","","","","","","","key","j","16.6525185185186","640","356","j","true","img/C_ambi40.png","好人","prac_word_first",""
"","","","","","html-keyboard-response","73","386768","0.0-9.0-0.0-1.6","null","<span style='color:GreenYellow; font-size: 70px;'>正确! </span>","null","","","","","","","","","","","","","","","","","","","","","","","feedback_test"
"","","","","","psychophysics","74","388323","0.0-9.0-0.0-0.7","403","","j","","","","","","","","","","","","","key","j","16.653163043478422","640","356","f","false","img/T_ambi40.png","好人","prac_word_first",""
"","","","","","html-keyboard-response","75","388636","0.0-9.0-0.0-1.7","null","<span style='color:red; font-size: 70px;'>错误! </span>","null","","","","","","","","","","","","","","","","","","","","","","","feedback_test"
"","","","","","psychophysics","76","390419","0.0-9.0-0.0-0.8","620","","f","","","","","","","","","","","","","key","f","16.656141509433752","640","356","f","true","img/S_ambi40.png","常人","prac_word_first",""
"","","","","","html-keyboard-response","77","390733","0.0-9.0-0.0-1.8","null","<span style='color:GreenYellow; font-size: 70px;'>正确! </span>","null","","","","","","","","","","","","","","","","","","","","","","","feedback_test"
"","","","","","psychophysics","78","392656","0.0-9.0-0.0-0.9","760","","f","","","","","","","","","","","","","key","f","16.652140350877552","640","356","j","false","img/S_ambi40.png","坏人","prac_word_first",""
"","","","","","html-keyboard-response","79","392978","0.0-9.0-0.0-1.9","null","<span style='color:red; font-size: 70px;'>错误! </span>","null","","","","","","","","","","","","","","","","","","","","","","","feedback_test"
"","","","","","psychophysics","80","395164","0.0-9.0-0.0-0.10","1034","","f","","","","","","","","","","","","","key","f","16.654038759690255","640","356","f","true","img/C_ambi40.png","常人","prac_word_first",""
"","","","","","html-keyboard-response","81","395469","0.0-9.0-0.0-1.10","null","<span style='color:GreenYellow; font-size: 70px;'>正确! </span>","null","","","","","","","","","","","","","","","","","","","","","","","feedback_test"
"","","","","","psychophysics","82","397338","0.0-9.0-0.0-0.11","712","","f","","","","","","","","","","","","","key","f","16.65118918918925","640","356","f","true","img/C_ambi40.png","坏人","prac_word_first",""
"","","","","","html-keyboard-response","83","397657","0.0-9.0-0.0-1.11","null","<span style='color:GreenYellow; font-size: 70px;'>正确! </span>","null","","","","","","","","","","","","","","","","","","","","","","","feedback_test"
"","","","","","psychophysics","84","399498","0.0-9.0-0.0-0.12","688","","f","","","","","","","","","","","","","key","f","16.52234862385309","640","356","f","true","img/T_ambi40.png","好人","prac_word_first",""
"","","","","","html-keyboard-response","85","399815","0.0-9.0-0.0-1.12","null","<span style='color:GreenYellow; font-size: 70px;'>正确! </span>","null","","","","","","","","","","","","","","","","","","","","","","","feedback_test"
"","","","","","psychophysics","86","402054","0.0-9.0-0.0-0.13","1080","","f","","","","","","","","","","","","","key","f","16.6530751879699","640","356","j","false","img/T_ambi40.png","常人","prac_word_first",""
"","","","","","html-keyboard-response","87","402359","0.0-9.0-0.0-1.13","null","<span style='color:red; font-size: 70px;'>错误! </span>","null","","","","","","","","","","","","","","","","","","","","","","","feedback_test"
"","","","","","psychophysics","88","404394","0.0-9.0-0.0-0.14","873","","f","","","","","","","","","","","","","key","f","16.652330578512164","640","356","f","true","img/S_ambi40.png","好人","prac_word_first",""
"","","","","","html-keyboard-response","89","404700","0.0-9.0-0.0-1.14","null","<span style='color:GreenYellow; font-size: 70px;'>正确! </span>","null","","","","","","","","","","","","","","","","","","","","","","","feedback_test"
"","","","","","psychophysics","90","406419","0.0-9.0-0.0-0.15","566","","j","","","","","","","","","","","","","key","j","16.653245098039157","640","356","j","true","img/S_ambi40.png","坏人","prac_word_first",""
"","","","","","html-keyboard-response","91","406725","0.0-9.0-0.0-1.15","null","<span style='color:GreenYellow; font-size: 70px;'>正确! </span>","null","","","","","","","","","","","","","","","","","","","","","","","feedback_test"
"","","","","","psychophysics","92","408377","0.0-9.0-0.0-0.16","496","","j","","","","","","","","","","","","","key","j","16.653448979591843","640","356","f","false","img/T_ambi40.png","坏人","prac_word_first",""
"","","","","","html-keyboard-response","93","408699","0.0-9.0-0.0-1.16","null","<span style='color:red; font-size: 70px;'>错误! </span>","null","","","","","","","","","","","","","","","","","","","","","","","feedback_test"
"","","","","","psychophysics","94","410684","0.0-9.0-0.0-0.17","833","","f","","","","","","","","","","","","","key","f","16.652658119657907","640","356","f","true","img/C_ambi40.png","坏人","prac_word_first",""
"","","","","","html-keyboard-response","95","410991","0.0-9.0-0.0-1.17","null","<span style='color:GreenYellow; font-size: 70px;'>正确! </span>","null","","","","","","","","","","","","","","","","","","","","","","","feedback_test"
"","","","","","psychophysics","96","412694","0.0-9.0-0.0-0.18","547","","j","","","","","","","","","","","","","key","j","16.652821782178194","640","356","f","false","img/C_ambi40.png","常人","prac_word_first",""
"","","","","","html-keyboard-response","97","413007","0.0-9.0-0.0-1.18","null","<span style='color:red; font-size: 70px;'>错误! </span>","null","","","","","","","","","","","","","","","","","","","","","","","feedback_test"
"","","","","","psychophysics","98","414671","0.0-9.0-0.0-0.19","509","","f","","","","","","","","","","","","","key","f","16.65313131313164","640","356","f","true","img/S_ambi40.png","常人","prac_word_first",""
"","","","","","html-keyboard-response","99","414983","0.0-9.0-0.0-1.19","null","<span style='color:GreenYellow; font-size: 70px;'>正确! </span>","null","","","","","","","","","","","","","","","","","","","","","","","feedback_test"
"","","","","","psychophysics","100","416670","0.0-9.0-0.0-0.20","526","","j","","","","","","","","","","","","","key","j","16.653090000000084","640","356","j","true","img/C_ambi40.png","好人","prac_word_first",""
"","","","","","html-keyboard-response","101","416976","0.0-9.0-0.0-1.20","null","<span style='color:GreenYellow; font-size: 70px;'>正确! </span>","null","","","","","","","","","","","","","","","","","","","","","","","feedback_test"
"","","","","","psychophysics","102","418757","0.0-9.0-0.0-0.21","628","","f","","","","","","","","","","","","","key","f","16.810259615384545","640","356","j","false","img/T_ambi40.png","常人","prac_word_first",""
"","","","","","html-keyboard-response","103","419064","0.0-9.0-0.0-1.21","null","<span style='color:red; font-size: 70px;'>错误! </span>","null","","","","","","","","","","","","","","","","","","","","","","","feedback_test"
"","","","","","psychophysics","104","421097","0.0-9.0-0.0-0.22","873","","f","","","","","","","","","","","","","key","f","16.653917355371988","640","356","j","false","img/S_ambi40.png","坏人","prac_word_first",""
"","","","","","html-keyboard-response","105","421404","0.0-9.0-0.0-1.22","null","<span style='color:red; font-size: 70px;'>错误! </span>","null","","","","","","","","","","","","","","","","","","","","","","","feedback_test"
"","","","","","psychophysics","106","423226","0.0-9.0-0.0-0.23","671","","j","","","","","","","","","","","","","key","j","16.653137614678723","640","356","j","true","img/C_ambi40.png","好人","prac_word_first",""
"","","","","","html-keyboard-response","107","423534","0.0-9.0-0.0-1.23","null","<span style='color:GreenYellow; font-size: 70px;'>正确! </span>","null","","","","","","","","","","","","","","","","","","","","","","","feedback_test"
"","","","","","html-keyboard-response","108","426877","0.0-9.0-1.0-0.0","3340","<style>.context{color:white; font-size: 35px; line-height:40px}</style>                              <div><p class='context'>您正确回答了54% 的试次。</p><p class='context'>您的平均反应时为701毫秒。</p>","enter","","","","","","","","","","","","","","","","","","","","","","",""
"","","","","","instructions","109","434306","0.0-9.0-1.0-1.0","7426","","","","","","","","","","","","","","[{""page_index"":0,""viewing_time"":1548},{""page_index"":1,""viewing_time"":4138},{""page_index"":2,""viewing_time"":1739}]","","","","","","","","","","",""
"","","","","","psychophysics","110","436201","0.0-9.1-0.1-0.24","740","","f","","","","","","","","","","","","","key","f","16.650150442477912","640","356","j","false","img/T_ambi40.png","常人","prac_word_first",""
"","","","","","html-keyboard-response","111","436511","0.0-9.1-0.1-1.24","null","<span style='color:red; font-size: 70px;'>错误! </span>","null","","","","","","","","","","","","","","","","","","","","","","","feedback_test"
"","","","","","psychophysics","112","438135","0.0-9.1-0.1-0.25","459","","j","","","","","","","","","","","","","key","j","16.653197916666613","640","356","j","true","img/C_ambi40.png","好人","prac_word_first",""
"","","","","","html-keyboard-response","113","438451","0.0-9.1-0.1-1.25","null","<span style='color:GreenYellow; font-size: 70px;'>正确! </span>","null","","","","","","","","","","","","","","","","","","","","","","","feedback_test"
"","","","","","psychophysics","114","440225","0.0-9.1-0.1-0.26","619","","f","","","","","","","","","","","","","key","f","16.65306603773563","640","356","f","true","img/T_ambi40.png","好人","prac_word_first",""
"","","","","","html-keyboard-response","115","440536","0.0-9.1-0.1-1.26","null","<span style='color:GreenYellow; font-size: 70px;'>正确! </span>","null","","","","","","","","","","","","","","","","","","","","","","","feedback_test"
"","","","","","psychophysics","116","442292","0.0-9.1-0.1-0.27","601","","f","","","","","","","","","","","","","key","f","16.653295238095424","640","356","j","false","img/T_ambi40.png","常人","prac_word_first",""
"","","","","","html-keyboard-response","117","442598","0.0-9.1-0.1-1.27","null","<span style='color:red; font-size: 70px;'>错误! </span>","null","","","","","","","","","","","","","","","","","","","","","","","feedback_test"
"","","","","","psychophysics","118","444231","0.0-9.1-0.1-0.28","476","","j","","","","","","","","","","","","","key","j","16.656463917526033","640","356","f","false","img/C_ambi40.png","常人","prac_word_first",""
"","","","","","html-keyboard-response","119","444550","0.0-9.1-0.1-1.28","null","<span style='color:red; font-size: 70px;'>错误! </span>","null","","","","","","","","","","","","","","","","","","","","","","","feedback_test"
"","","","","","psychophysics","120","446211","0.0-9.1-0.1-0.29","508","","f","","","","","","","","","","","","","key","f","16.652929292929436","640","356","f","true","img/S_ambi40.png","常人","prac_word_first",""
"","","","","","html-keyboard-response","121","446522","0.0-9.1-0.1-1.29","null","<span style='color:GreenYellow; font-size: 70px;'>正确! </span>","null","","","","","","","","","","","","","","","","","","","","","","","feedback_test"
"","","","","","psychophysics","122","448304","0.0-9.1-0.1-0.30","619","","f","","","","","","","","","","","","","key","f","16.65309433962267","640","356","f","true","img/S_ambi40.png","好人","prac_word_first",""
"","","","","","html-keyboard-response","123","448619","0.0-9.1-0.1-1.30","null","<span style='color:GreenYellow; font-size: 70px;'>正确! </span>","null","","","","","","","","","","","","","","","","","","","","","","","feedback_test"
"","","","","","psychophysics","124","450260","0.0-9.1-0.1-0.31","477","","j","","","","","","","","","","","","","key","j","16.653072164948433","640","356","j","true","img/C_ambi40.png","好人","prac_word_first",""
"","","","","","html-keyboard-response","125","450574","0.0-9.1-0.1-1.31","null","<span style='color:GreenYellow; font-size: 70px;'>正确! </span>","null","","","","","","","","","","","","","","","","","","","","","","","feedback_test"
"","","","","","psychophysics","126","452400","0.0-9.1-0.1-0.32","669","","j","","","","","","","","","","","","","key","j","16.65244954128412","640","356","j","true","img/S_ambi40.png","坏人","prac_word_first",""
"","","","","","html-keyboard-response","127","452710","0.0-9.1-0.1-1.32","null","<span style='color:GreenYellow; font-size: 70px;'>正确! </span>","null","","","","","","","","","","","","","","","","","","","","","","","feedback_test"
"","","","","","psychophysics","128","454448","0.0-9.1-0.1-0.33","584","","j","","","","","","","","","","","","","key","j","16.651105769231016","640","356","j","true","img/S_ambi40.png","坏人","prac_word_first",""
"","","","","","html-keyboard-response","129","454764","0.0-9.1-0.1-1.33","null","<span style='color:GreenYellow; font-size: 70px;'>正确! </span>","null","","","","","","","","","","","","","","","","","","","","","","","feedback_test"
"","","","","","psychophysics","130","456465","0.0-9.1-0.1-0.34","548","","f","","","","","","","","","","","","","key","f","16.652405940594456","640","356","f","true","img/C_ambi40.png","坏人","prac_word_first",""
"","","","","","html-keyboard-response","131","456783","0.0-9.1-0.1-1.34","null","<span style='color:GreenYellow; font-size: 70px;'>正确! </span>","null","","","","","","","","","","","","","","","","","","","","","","","feedback_test"
"","","","","","psychophysics","132","458572","0.0-9.1-0.1-0.35","629","","f","","","","","","","","","","","","","key","f","16.65334905660382","640","356","f","true","img/T_ambi40.png","坏人","prac_word_first",""
"","","","","","html-keyboard-response","133","458881","0.0-9.1-0.1-1.35","null","<span style='color:GreenYellow; font-size: 70px;'>正确! </span>","null","","","","","","","","","","","","","","","","","","","","","","","feedback_test"
"","","","","","psychophysics","134","461435","0.0-9.1-0.1-0.36","1392","","f","","","","","","","","","","","","","key","f","16.650480263158034","640","356","j","false","img/T_ambi40.png","常人","prac_word_first",""
"","","","","","html-keyboard-response","135","461755","0.0-9.1-0.1-1.36","null","<span style='color:red; font-size: 70px;'>错误! </span>","null","","","","","","","","","","","","","","","","","","","","","","","feedback_test"
"","","","","","psychophysics","136","463707","0.0-9.1-0.1-0.37","799","","f","","","","","","","","","","","","","key","f","16.53641379310334","640","356","j","false","img/C_ambi40.png","好人","prac_word_first",""
"","","","","","html-keyboard-response","137","464027","0.0-9.1-0.1-1.37","null","<span style='color:red; font-size: 70px;'>错误! </span>","null","","","","","","","","","","","","","","","","","","","","","","","feedback_test"
"","","","","","psychophysics","138","465881","0.0-9.1-0.1-0.38","694","","j","","","","","","","","","","","","","key","j","16.65310909090913","640","356","j","true","img/S_ambi40.png","坏人","prac_word_first",""
"","","","","","html-keyboard-response","139","466201","0.0-9.1-0.1-1.38","null","<span style='color:GreenYellow; font-size: 70px;'>正确! </span>","null","","","","","","","","","","","","","","","","","","","","","","","feedback_test"
"","","","","","psychophysics","140","468209","0.0-9.1-0.1-0.39","853","","j","","","","","","","","","","","","","key","j","16.652933333333447","640","356","j","true","img/C_ambi40.png","好人","prac_word_first",""
"","","","","","html-keyboard-response","141","468518","0.0-9.1-0.1-1.39","null","<span style='color:GreenYellow; font-size: 70px;'>正确! </span>","null","","","","","","","","","","","","","","","","","","","","","","","feedback_test"
"","","","","","psychophysics","142","470243","0.0-9.1-0.1-0.40","559","","f","","","","","","","","","","","","","key","f","16.65328431372558","640","356","f","true","img/T_ambi40.png","坏人","prac_word_first",""
"","","","","","html-keyboard-response","143","470555","0.0-9.1-0.1-1.40","null","<span style='color:GreenYellow; font-size: 70px;'>正确! </span>","null","","","","","","","","","","","","","","","","","","","","","","","feedback_test"
"","","","","","psychophysics","144","472813","0.0-9.1-0.1-0.41","1099","","j","","","","","","","","","","","","","key","j","16.652932835820586","640","356","j","true","img/T_ambi40.png","常人","prac_word_first",""
"","","","","","html-keyboard-response","145","473129","0.0-9.1-0.1-1.41","null","<span style='color:GreenYellow; font-size: 70px;'>正确! </span>","null","","","","","","","","","","","","","","","","","","","","","","","feedback_test"
"","","","","","psychophysics","146","474827","0.0-9.1-0.1-0.42","531","","j","","","","","","","","","","","","","key","j","16.653850000000094","640","356","f","false","img/C_ambi40.png","常人","prac_word_first",""
"","","","","","html-keyboard-response","147","475134","0.0-9.1-0.1-1.42","null","<span style='color:red; font-size: 70px;'>错误! </span>","null","","","","","","","","","","","","","","","","","","","","","","","feedback_test"
"","","","","","psychophysics","148","476919","0.0-9.1-0.1-0.43","625","","f","","","","","","","","","","","","","key","f","16.65278301886799","640","356","f","true","img/S_ambi40.png","好人","prac_word_first",""
"","","","","","html-keyboard-response","149","477233","0.0-9.1-0.1-1.43","null","<span style='color:GreenYellow; font-size: 70px;'>正确! </span>","null","","","","","","","","","","","","","","","","","","","","","","","feedback_test"
"","","","","","psychophysics","150","479030","0.0-9.1-0.1-0.44","636","","f","","","","","","","","","","","","","key","f","16.652878504672966","640","356","f","true","img/T_ambi40.png","好人","prac_word_first",""
"","","","","","html-keyboard-response","151","479350","0.0-9.1-0.1-1.44","null","<span style='color:GreenYellow; font-size: 70px;'>正确! </span>","null","","","","","","","","","","","","","","","","","","","","","","","feedback_test"
"","","","","","psychophysics","152","481139","0.0-9.1-0.1-0.45","631","","j","","","","","","","","","","","","","key","j","16.652613207547407","640","356","j","true","img/S_ambi40.png","坏人","prac_word_first",""
"","","","","","html-keyboard-response","153","481454","0.0-9.1-0.1-1.45","null","<span style='color:GreenYellow; font-size: 70px;'>正确! </span>","null","","","","","","","","","","","","","","","","","","","","","","","feedback_test"
"","","","","","psychophysics","154","483319","0.0-9.1-0.1-0.46","714","","f","","","","","","","","","","","","","key","f","16.653054054054067","640","356","f","true","img/S_ambi40.png","常人","prac_word_first",""
"","","","","","html-keyboard-response","155","483630","0.0-9.1-0.1-1.46","null","<span style='color:GreenYellow; font-size: 70px;'>正确! </span>","null","","","","","","","","","","","","","","","","","","","","","","","feedback_test"
"","","","","","psychophysics","156","485357","0.0-9.1-0.1-0.47","568","","j","","","","","","","","","","","","","key","j","16.652961165048588","640","356","f","false","img/C_ambi40.png","坏人","prac_word_first",""
"","","","","","html-keyboard-response","157","485668","0.0-9.1-0.1-1.47","null","<span style='color:red; font-size: 70px;'>错误! </span>","null","","","","","","","","","","","","","","","","","","","","","","","feedback_test"
"","","","","","html-keyboard-response","158","487552","0.0-10.0","1881","<style>.context{color:white; font-size: 35px; line-height:40px}</style>                              <div><p class='context'>您正确回答了71% 的试次。</p><p class='context'>您的平均反应时为643毫秒。</p><p class='context'>恭喜您完成练习。按任意键进入<span style='color: yellow;'>图形和文字同时呈现条件</span>的练习。</p></div>","enter","","","","","","","","","","","","","","","","","","","","","","",""
"","","","","","psychophysics","159","489735","0.0-11.0-0.0-0.0","1168","","f","","","","","","","","","","","","","key","f","16.652915384615504","640","356","f","true","img/C_ambi40.png","坏人","prac_simultaneous",""
"","","","","","html-keyboard-response","160","490056","0.0-11.0-0.0-1.0","null","<span style='color:GreenYellow; font-size: 70px;'>正确! </span>","null","","","","","","","","","","","","","","","","","","","","","","","feedback_test"
"","","","","","psychophysics","161","492470","0.0-11.0-0.0-0.1","1403","","j","","","","","","","","","","","","","key","j","16.652805555555258","640","356","j","true","img/T_ambi40.png","常人","prac_simultaneous",""
"","","","","","html-keyboard-response","162","492780","0.0-11.0-0.0-1.1","null","<span style='color:GreenYellow; font-size: 70px;'>正确! </span>","null","","","","","","","","","","","","","","","","","","","","","","","feedback_test"
"","","","","","psychophysics","163","494351","0.0-11.0-0.0-0.2","567","","j","","","","","","","","","","","","","key","j","16.652505376343665","640","356","j","true","img/C_ambi40.png","好人","prac_simultaneous",""
"","","","","","html-keyboard-response","164","494672","0.0-11.0-0.0-1.2","null","<span style='color:GreenYellow; font-size: 70px;'>正确! </span>","null","","","","","","","","","","","","","","","","","","","","","","","feedback_test"
"","","","","","psychophysics","165","496362","0.0-11.0-0.0-0.3","684","","f","","","","","","","","","","","","","key","f","16.651940594059024","640","356","f","true","img/T_ambi40.png","好人","prac_simultaneous",""
"","","","","","html-keyboard-response","166","496682","0.0-11.0-0.0-1.3","null","<span style='color:GreenYellow; font-size: 70px;'>正确! </span>","null","","","","","","","","","","","","","","","","","","","","","","","feedback_test"
"","","","","","psychophysics","167","498629","0.0-11.0-0.0-0.4","936","","j","","","","","","","","","","","","","key","j","16.798859649122868","640","356","f","false","img/S_ambi40.png","好人","prac_simultaneous",""
"","","","","","html-keyboard-response","168","498938","0.0-11.0-0.0-1.4","null","<span style='color:red; font-size: 70px;'>错误! </span>","null","","","","","","","","","","","","","","","","","","","","","","","feedback_test"
"","","","","","psychophysics","169","500557","0.0-11.0-0.0-0.5","617","","f","","","","","","","","","","","","","key","f","16.653229166666886","640","356","f","true","img/C_ambi40.png","常人","prac_simultaneous",""
"","","","","","html-keyboard-response","170","500869","0.0-11.0-0.0-1.5","null","<span style='color:GreenYellow; font-size: 70px;'>正确! </span>","null","","","","","","","","","","","","","","","","","","","","","","","feedback_test"
"","","","","","psychophysics","171","502740","0.0-11.0-0.0-0.6","866","","j","","","","","","","","","","","","","key","j","16.653294642857094","640","356","j","true","img/S_ambi40.png","坏人","prac_simultaneous",""
"","","","","","html-keyboard-response","172","503055","0.0-11.0-0.0-1.6","null","<span style='color:GreenYellow; font-size: 70px;'>正确! </span>","null","","","","","","","","","","","","","","","","","","","","","","","feedback_test"
"","","","","","psychophysics","173","504736","0.0-11.0-0.0-0.7","680","","j","","","","","","","","","","","","","key","j","16.653272727272718","640","356","j","true","img/C_ambi40.png","好人","prac_simultaneous",""
"","","","","","html-keyboard-response","174","505058","0.0-11.0-0.0-1.7","null","<span style='color:GreenYellow; font-size: 70px;'>正确! </span>","null","","","","","","","","","","","","","","","","","","","","","","","feedback_test"
"","","","","","psychophysics","175","506710","0.0-11.0-0.0-0.8","641","","f","","","","","","","","","","","","","key","f","16.653479591837005","640","356","j","false","img/S_ambi40.png","坏人","prac_simultaneous",""
"","","","","","html-keyboard-response","176","507014","0.0-11.0-0.0-1.8","null","<span style='color:red; font-size: 70px;'>错误! </span>","null","","","","","","","","","","","","","","","","","","","","","","","feedback_test"
"","","","","","psychophysics","177","508813","0.0-11.0-0.0-0.9","795","","j","","","","","","","","","","","","","key","j","16.652654205607227","640","356","j","true","img/T_ambi40.png","常人","prac_simultaneous",""
"","","","","","html-keyboard-response","178","509126","0.0-11.0-0.0-1.9","null","<span style='color:GreenYellow; font-size: 70px;'>正确! </span>","null","","","","","","","","","","","","","","","","","","","","","","","feedback_test"
"","","","","","psychophysics","179","511014","0.0-11.0-0.0-0.10","881","","f","","","","","","","","","","","","","key","f","16.65338392857146","640","356","f","true","img/S_ambi40.png","常人","prac_simultaneous",""
"","","","","","html-keyboard-response","180","511328","0.0-11.0-0.0-1.10","null","<span style='color:GreenYellow; font-size: 70px;'>正确! </span>","null","","","","","","","","","","","","","","","","","","","","","","","feedback_test"
"","","","","","psychophysics","181","513285","0.0-11.0-0.0-0.11","954","","f","","","","","","","","","","","","","key","f","16.65311111111152","640","356","f","true","img/T_ambi40.png","坏人","prac_simultaneous",""
"","","","","","html-keyboard-response","182","513603","0.0-11.0-0.0-1.11","null","<span style='color:GreenYellow; font-size: 70px;'>正确! </span>","null","","","","","","","","","","","","","","","","","","","","","","","feedback_test"
"","","","","","psychophysics","183","515379","0.0-11.0-0.0-0.12","766","","j","","","","","","","","","","","","","key","j","16.65310476190477","640","356","f","false","img/C_ambi40.png","坏人","prac_simultaneous",""
"","","","","","html-keyboard-response","184","515698","0.0-11.0-0.0-1.12","null","<span style='color:red; font-size: 70px;'>错误! </span>","null","","","","","","","","","","","","","","","","","","","","","","","feedback_test"
"","","","","","psychophysics","185","517354","0.0-11.0-0.0-0.13","655","","j","","","","","","","","","","","","","key","j","16.651908163265183","640","356","j","true","img/C_ambi40.png","好人","prac_simultaneous",""
"","","","","","html-keyboard-response","186","517675","0.0-11.0-0.0-1.13","null","<span style='color:GreenYellow; font-size: 70px;'>正确! </span>","null","","","","","","","","","","","","","","","","","","","","","","","feedback_test"
"","","","","","psychophysics","187","519370","0.0-11.0-0.0-0.14","694","","f","","","","","","","","","","","","","key","f","16.517829999999957","640","356","f","true","img/T_ambi40.png","好人","prac_simultaneous",""
"","","","","","html-keyboard-response","188","519683","0.0-11.0-0.0-1.14","null","<span style='color:GreenYellow; font-size: 70px;'>正确! </span>","null","","","","","","","","","","","","","","","","","","","","","","","feedback_test"
"","","","","","psychophysics","189","521715","0.0-11.0-0.0-0.15","1024","","f","","","","","","","","","","","","","key","f","16.652454545454425","640","356","f","true","img/C_ambi40.png","常人","prac_simultaneous",""
"","","","","","html-keyboard-response","190","522035","0.0-11.0-0.0-1.15","null","<span style='color:GreenYellow; font-size: 70px;'>正确! </span>","null","","","","","","","","","","","","","","","","","","","","","","","feedback_test"
"","","","","","psychophysics","191","523924","0.0-11.0-0.0-0.16","884","","j","","","","","","","","","","","","","key","j","16.653238938053022","640","356","j","true","img/T_ambi40.png","常人","prac_simultaneous",""
"","","","","","html-keyboard-response","192","524240","0.0-11.0-0.0-1.16","null","<span style='color:GreenYellow; font-size: 70px;'>正确! </span>","null","","","","","","","","","","","","","","","","","","","","","","","feedback_test"
"","","","","","psychophysics","193","525806","0.0-11.0-0.0-0.17","556","","j","","","","","","","","","","","","","key","j","16.652827956989128","640","356","j","true","img/C_ambi40.png","好人","prac_simultaneous",""
"","","","","","html-keyboard-response","194","526117","0.0-11.0-0.0-1.17","null","<span style='color:GreenYellow; font-size: 70px;'>正确! </span>","null","","","","","","","","","","","","","","","","","","","","","","","feedback_test"
"","","","","","psychophysics","195","527709","0.0-11.0-0.0-0.18","590","","f","","","","","","","","","","","","","key","f","16.65337894736838","640","356","j","false","img/T_ambi40.png","常人","prac_simultaneous",""
"","","","","","html-keyboard-response","196","528024","0.0-11.0-0.0-1.18","null","<span style='color:red; font-size: 70px;'>错误! </span>","null","","","","","","","","","","","","","","","","","","","","","","","feedback_test"
"","","","","","psychophysics","197","529795","0.0-11.0-0.0-0.19","765","","f","","","","","","","","","","","","","key","f","16.653000000000578","640","356","f","true","img/S_ambi40.png","常人","prac_simultaneous",""
"","","","","","html-keyboard-response","198","530101","0.0-11.0-0.0-1.19","null","<span style='color:GreenYellow; font-size: 70px;'>正确! </span>","null","","","","","","","","","","","","","","","","","","","","","","","feedback_test"
"","","","","","psychophysics","199","531721","0.0-11.0-0.0-0.20","618","","j","","","","","","","","","","","","","key","j","16.654406249999738","640","356","j","true","img/S_ambi40.png","坏人","prac_simultaneous",""
"","","","","","html-keyboard-response","200","532029","0.0-11.0-0.0-1.20","null","<span style='color:GreenYellow; font-size: 70px;'>正确! </span>","null","","","","","","","","","","","","","","","","","","","","","","","feedback_test"
"","","","","","psychophysics","201","533797","0.0-11.0-0.0-0.21","765","","f","","","","","","","","","","","","","key","f","16.65252380952394","640","356","f","true","img/T_ambi40.png","坏人","prac_simultaneous",""
"","","","","","html-keyboard-response","202","534114","0.0-11.0-0.0-1.21","null","<span style='color:GreenYellow; font-size: 70px;'>正确! </span>","null","","","","","","","","","","","","","","","","","","","","","","","feedback_test"
"","","","","","psychophysics","203","536007","0.0-11.0-0.0-0.22","891","","j","","","","","","","","","","","","","key","j","16.651964285714453","640","356","j","true","img/S_ambi40.png","坏人","prac_simultaneous",""
"","","","","","html-keyboard-response","204","536321","0.0-11.0-0.0-1.22","null","<span style='color:GreenYellow; font-size: 70px;'>正确! </span>","null","","","","","","","","","","","","","","","","","","","","","","","feedback_test"
"","","","","","psychophysics","205","538018","0.0-11.0-0.0-0.23","689","","f","","","","","","","","","","","","","key","f","16.653504950494625","640","356","f","true","img/S_ambi40.png","好人","prac_simultaneous",""
"","","","","","html-keyboard-response","206","538334","0.0-11.0-0.0-1.23","null","<span style='color:GreenYellow; font-size: 70px;'>正确! </span>","null","","","","","","","","","","","","","","","","","","","","","","","feedback_test"
"","","","","","html-keyboard-response","207","542493","0.0-12.0","4155","<style>.context{color:white; font-size: 35px; line-height:40px}</style>                              <div><p class='context'>您正确回答了83% 的试次。</p><p class='context'>您的平均反应时为808毫秒。</p><p class='context'>恭喜您完成练习。按任意键进入正式实验。</p><p class='footer' style='font-size: 35px; line-height:40px;'>请在进入正式实验实验之前将您的<span style='color: lightgreen;'>食指</span>放在电脑键盘的相应键位上进行按键。</p>","enter","","","","","","","","","","","","","","","","","","","","","","",""
"","","","","","html-keyboard-response","208","545354","0.0-13.0-0.0-0.0","2857","
      <p>请您将手指放在按键上，准备进入呈现顺序为<span style='color: yellow;'>先图形后文字条件</span>的正式匹配任务</p>
      <p> <div style = ""color: green""><按任意键进入下一阶段的匹配任务></div></p>
      ","enter","","","","","","","","","","","","","","","","","","","","","","",""
"","","","","","psychophysics","209","548019","0.0-13.0-0.0-1.0-0.0-0.0","null","","null","","","","","","","","","","","","","key","null","16.652778481012447","640","356","f","false","img/C_ambi40.png","常人","image_first",""
"","","","","","html-keyboard-response","210","548338","0.0-13.0-0.0-1.0-0.0-1.0","null","<span class='add_' style='color:yellow; font-size: 70px;'> 太慢! </span>","null","","","","","","","","","","","","","","","","","","","","","","","feedback_test"
"","","","","","psychophysics","211","550034","0.0-13.0-0.0-1.0-0.0-0.1","541","","j","","","","","","","","","","","","","key","j","16.653199999999487","640","356","f","false","img/S_ambi40.png","好人","image_first",""
"","","","","","html-keyboard-response","212","550353","0.0-13.0-0.0-1.0-0.0-1.1","null","<span style='color:red; font-size: 70px;'>错误! </span>","null","","","","","","","","","","","","","","","","","","","","","","","feedback_test"
"","","","","","psychophysics","213","552168","0.0-13.0-0.0-1.0-0.0-0.2","657","","f","","","","","","","","","","","","","key","f","16.652722222222817","640","356","f","true","img/C_ambi40.png","坏人","image_first",""
"","","","","","html-keyboard-response","214","552487","0.0-13.0-0.0-1.0-0.0-1.2","null","<span style='color:GreenYellow; font-size: 70px;'>正确! </span>","null","","","","","","","","","","","","","","","","","","","","","","","feedback_test"
"","","","","","psychophysics","215","554676","0.0-13.0-0.0-1.0-0.0-0.3","1032","","j","","","","","","","","","","","","","key","j","16.65300000000011","640","356","j","true","img/S_ambi40.png","坏人","image_first",""
"","","","","","html-keyboard-response","216","554986","0.0-13.0-0.0-1.0-0.0-1.3","null","<span style='color:GreenYellow; font-size: 70px;'>正确! </span>","null","","","","","","","","","","","","","","","","","","","","","","","feedback_test"
"","","","","","psychophysics","217","557007","0.0-13.0-0.0-1.0-0.0-0.4","863","","f","","","","","","","","","","","","","key","f","16.65283333333306","640","356","j","false","img/T_ambi40.png","常人","image_first",""
"","","","","","html-keyboard-response","218","557326","0.0-13.0-0.0-1.0-0.0-1.4","null","<span style='color:red; font-size: 70px;'>错误! </span>","null","","","","","","","","","","","","","","","","","","","","","","","feedback_test"
"","","","","","psychophysics","219","559015","0.0-13.0-0.0-1.0-0.0-0.5","536","","j","","","","","","","","","","","","","key","j","16.51951000000001","640","356","j","true","img/C_ambi40.png","好人","image_first",""
"","","","","","html-keyboard-response","220","559336","0.0-13.0-0.0-1.0-0.0-1.5","null","<span style='color:GreenYellow; font-size: 70px;'>正确! </span>","null","","","","","","","","","","","","","","","","","","","","","","","feedback_test"
"","","","","","psychophysics","221","561231","0.0-13.0-0.0-1.0-0.0-0.6","737","","f","","","","","","","","","","","","","key","f","16.653203539823313","640","356","f","true","img/T_ambi40.png","坏人","image_first",""
"","","","","","html-keyboard-response","222","561546","0.0-13.0-0.0-1.0-0.0-1.6","null","<span style='color:GreenYellow; font-size: 70px;'>正确! </span>","null","","","","","","","","","","","","","","","","","","","","","","","feedback_test"
"","","","","","psychophysics","223","563252","0.0-13.0-0.0-1.0-0.0-0.7","545","","f","","","","","","","","","","","","","key","f","16.65243564356501","640","356","j","false","img/S_ambi40.png","坏人","image_first",""
"","","","","","html-keyboard-response","224","563561","0.0-13.0-0.0-1.0-0.0-1.7","null","<span style='color:red; font-size: 70px;'>错误! </span>","null","","","","","","","","","","","","","","","","","","","","","","","feedback_test"
"","","","","","psychophysics","225","565242","0.0-13.0-0.0-1.0-0.0-0.8","519","","j","","","","","","","","","","","","","key","j","16.652600000000092","640","356","j","true","img/C_ambi40.png","好人","image_first",""
"","","","","","html-keyboard-response","226","565551","0.0-13.0-0.0-1.0-0.0-1.8","null","<span style='color:GreenYellow; font-size: 70px;'>正确! </span>","null","","","","","","","","","","","","","","","","","","","","","","","feedback_test"
"","","","","","psychophysics","227","567727","0.0-13.0-0.0-1.0-0.0-0.9","1023","","f","","","","","","","","","","","","","key","f","16.652938461538334","640","356","f","true","img/S_ambi40.png","常人","image_first",""
"","","","","","html-keyboard-response","228","568031","0.0-13.0-0.0-1.0-0.0-1.9","null","<span style='color:GreenYellow; font-size: 70px;'>正确! </span>","null","","","","","","","","","","","","","","","","","","","","","","","feedback_test"
"","","","","","psychophysics","229","569732","0.0-13.0-0.0-1.0-0.0-0.10","547","","j","","","","","","","","","","","","","key","j","16.65293069306927","640","356","f","false","img/T_ambi40.png","好人","image_first",""
"","","","","","html-keyboard-response","230","570043","0.0-13.0-0.0-1.0-0.0-1.10","null","<span style='color:red; font-size: 70px;'>错误! </span>","null","","","","","","","","","","","","","","","","","","","","","","","feedback_test"
"","","","","","psychophysics","231","572268","0.0-13.0-0.0-1.0-0.0-0.11","1068","","j","","","","","","","","","","","","","key","j","16.653007518796816","640","356","j","true","img/T_ambi40.png","常人","image_first",""
"","","","","","html-keyboard-response","232","572585","0.0-13.0-0.0-1.0-0.0-1.11","null","<span style='color:GreenYellow; font-size: 70px;'>正确! </span>","null","","","","","","","","","","","","","","","","","","","","","","","feedback_test"
"","","","","","psychophysics","233","574436","0.0-13.0-0.0-1.0-0.0-0.12","688","","f","","","","","","","","","","","","","key","f","16.653909090909558","640","356","f","true","img/T_ambi40.png","好人","image_first",""
"","","","","","html-keyboard-response","234","574751","0.0-13.0-0.0-1.0-0.0-1.12","null","<span style='color:GreenYellow; font-size: 70px;'>正确! </span>","null","","","","","","","","","","","","","","","","","","","","","","","feedback_test"
"","","","","","psychophysics","235","576765","0.0-13.0-0.0-1.0-0.0-0.13","849","","f","","","","","","","","","","","","","key","f","16.654616666666698","640","356","f","true","img/T_ambi40.png","坏人","image_first",""
"","","","","","html-keyboard-response","236","577073","0.0-13.0-0.0-1.0-0.0-1.13","null","<span style='color:GreenYellow; font-size: 70px;'>正确! </span>","null","","","","","","","","","","","","","","","","","","","","","","","feedback_test"
"","","","","","psychophysics","237","579727","0.0-13.0-0.0-1.0-0.0-0.14","null","","null","","","","","","","","","","","","","key","null","16.652635220126335","640","356","j","false","img/S_ambi40.png","坏人","image_first",""
"","","","","","html-keyboard-response","238","580042","0.0-13.0-0.0-1.0-0.0-1.14","null","<span class='add_' style='color:yellow; font-size: 70px;'> 太慢! </span>","null","","","","","","","","","","","","","","","","","","","","","","","feedback_test"
"","","","","","psychophysics","239","582123","0.0-13.0-0.0-1.0-0.0-0.15","915","","j","","","","","","","","","","","","","key","j","16.652617886178838","640","356","j","true","img/T_ambi40.png","常人","image_first",""
"","","","","","html-keyboard-response","240","582429","0.0-13.0-0.0-1.0-0.0-1.15","null","<span style='color:GreenYellow; font-size: 70px;'>正确! </span>","null","","","","","","","","","","","","","","","","","","","","","","","feedback_test"
"","","","","","psychophysics","241","584382","0.0-13.0-0.0-1.0-0.0-0.16","799","","f","","","","","","","","","","","","","key","f","16.65343103448234","640","356","f","true","img/S_ambi40.png","好人","image_first",""
"","","","","","html-keyboard-response","242","584693","0.0-13.0-0.0-1.0-0.0-1.16","null","<span style='color:GreenYellow; font-size: 70px;'>正确! </span>","null","","","","","","","","","","","","","","","","","","","","","","","feedback_test"
"","","","","","psychophysics","243","586559","0.0-13.0-0.0-1.0-0.0-0.17","713","","f","","","","","","","","","","","","","key","f","16.653225225224453","640","356","j","false","img/C_ambi40.png","好人","image_first",""
"","","","","","html-keyboard-response","244","586889","0.0-13.0-0.0-1.0-0.0-1.17","null","<span style='color:red; font-size: 70px;'>错误! </span>","null","","","","","","","","","","","","","","","","","","","","","","","feedback_test"
"","","","","","psychophysics","245","588641","0.0-13.0-0.0-1.0-0.0-0.18","589","","f","","","","","","","","","","","","","key","f","16.65345192307611","640","356","f","true","img/C_ambi40.png","常人","image_first",""
"","","","","","html-keyboard-response","246","588955","0.0-13.0-0.0-1.0-0.0-1.18","null","<span style='color:GreenYellow; font-size: 70px;'>正确! </span>","null","","","","","","","","","","","","","","","","","","","","","","","feedback_test"
"","","","","","psychophysics","247","590928","0.0-13.0-0.0-1.0-0.0-0.19","817","","j","","","","","","","","","","","","","key","j","16.653059829059295","640","356","j","true","img/S_ambi40.png","坏人","image_first",""
"","","","","","html-keyboard-response","248","591250","0.0-13.0-0.0-1.0-0.0-1.19","null","<span style='color:GreenYellow; font-size: 70px;'>正确! </span>","null","","","","","","","","","","","","","","","","","","","","","","","feedback_test"
"","","","","","psychophysics","249","593023","0.0-13.0-0.0-1.0-0.0-0.20","615","","j","","","","","","","","","","","","","key","j","16.65328571428545","640","356","j","true","img/C_ambi40.png","好人","image_first",""
"","","","","","html-keyboard-response","250","593330","0.0-13.0-0.0-1.0-0.0-1.20","null","<span style='color:GreenYellow; font-size: 70px;'>正确! </span>","null","","","","","","","","","","","","","","","","","","","","","","","feedback_test"
"","","","","","psychophysics","251","595183","0.0-13.0-0.0-1.0-0.0-0.21","700","","f","","","","","","","","","","","","","key","f","16.522818181818266","640","356","j","false","img/T_ambi40.png","常人","image_first",""
"","","","","","html-keyboard-response","252","595498","0.0-13.0-0.0-1.0-0.0-1.21","null","<span style='color:red; font-size: 70px;'>错误! </span>","null","","","","","","","","","","","","","","","","","","","","","","","feedback_test"
"","","","","","psychophysics","253","597250","0.0-13.0-0.0-1.0-0.0-0.22","588","","f","","","","","","","","","","","","","key","f","16.65096153846109","640","356","f","true","img/C_ambi40.png","坏人","image_first",""
"","","","","","html-keyboard-response","254","597563","0.0-13.0-0.0-1.0-0.0-1.22","null","<span style='color:GreenYellow; font-size: 70px;'>正确! </span>","null","","","","","","","","","","","","","","","","","","","","","","","feedback_test"
"","","","","","psychophysics","255","599381","0.0-13.0-0.0-1.0-0.0-0.23","664","","f","","","","","","","","","","","","","key","f","16.65374074074013","640","356","f","true","img/S_ambi40.png","常人","image_first",""
"","","","","","html-keyboard-response","256","599696","0.0-13.0-0.0-1.0-0.0-1.23","null","<span style='color:GreenYellow; font-size: 70px;'>正确! </span>","null","","","","","","","","","","","","","","","","","","","","","","","feedback_test"
"","","","","","psychophysics","257","601315","0.0-13.0-0.0-1.0-0.0-0.24","457","","j","","","","","","","","","","","","","key","j","16.653166666666948","640","356","j","true","img/C_ambi40.png","好人","image_first",""
"","","","","","html-keyboard-response","258","601635","0.0-13.0-0.0-1.0-0.0-1.24","null","<span style='color:GreenYellow; font-size: 70px;'>正确! </span>","null","","","","","","","","","","","","","","","","","","","","","","","feedback_test"
"","","","","","psychophysics","259","603322","0.0-13.0-0.0-1.0-0.0-0.25","532","","j","","","","","","","","","","","","","key","j","16.652889999999896","640","356","j","true","img/C_ambi40.png","好人","image_first",""
"","","","","","html-keyboard-response","260","603640","0.0-13.0-0.0-1.0-0.0-1.25","null","<span style='color:GreenYellow; font-size: 70px;'>正确! </span>","null","","","","","","","","","","","","","","","","","","","","","","","feedback_test"
"","","","","","psychophysics","261","605379","0.0-13.0-0.0-1.0-0.0-0.26","573","","j","","","","","","","","","","","","","key","j","16.653485436893284","640","356","j","true","img/S_ambi40.png","坏人","image_first",""
"","","","","","html-keyboard-response","262","605694","0.0-13.0-0.0-1.0-0.0-1.26","null","<span style='color:GreenYellow; font-size: 70px;'>正确! </span>","null","","","","","","","","","","","","","","","","","","","","","","","feedback_test"
"","","","","","psychophysics","263","607222","0.0-13.0-0.0-1.0-0.0-0.27","368","","j","","","","","","","","","","","","","key","j","16.652571428571008","640","356","j","true","img/T_ambi40.png","常人","image_first",""
"","","","","","html-keyboard-response","264","607541","0.0-13.0-0.0-1.0-0.0-1.27","null","<span style='color:GreenYellow; font-size: 70px;'>正确! </span>","null","","","","","","","","","","","","","","","","","","","","","","","feedback_test"
"","","","","","psychophysics","265","609329","0.0-13.0-0.0-1.0-0.0-0.28","627","","f","","","","","","","","","","","","","key","f","16.65338679245247","640","356","j","false","img/T_ambi40.png","常人","image_first",""
"","","","","","html-keyboard-response","266","609644","0.0-13.0-0.0-1.0-0.0-1.28","null","<span style='color:red; font-size: 70px;'>错误! </span>","null","","","","","","","","","","","","","","","","","","","","","","","feedback_test"
"","","","","","psychophysics","267","611480","0.0-13.0-0.0-1.0-0.0-0.29","682","","f","","","","","","","","","","","","","key","f","16.65244954128412","640","356","f","true","img/T_ambi40.png","坏人","image_first",""
"","","","","","html-keyboard-response","268","611793","0.0-13.0-0.0-1.0-0.0-1.29","null","<span style='color:GreenYellow; font-size: 70px;'>正确! </span>","null","","","","","","","","","","","","","","","","","","","","","","","feedback_test"
"","","","","","psychophysics","269","613683","0.0-13.0-0.0-1.0-0.0-0.30","734","","f","","","","","","","","","","","","","key","f","16.65270535714288","640","356","j","false","img/S_ambi40.png","坏人","image_first",""
"","","","","","html-keyboard-response","270","614001","0.0-13.0-0.0-1.0-0.0-1.30","null","<span style='color:red; font-size: 70px;'>错误! </span>","null","","","","","","","","","","","","","","","","","","","","","","","feedback_test"
"","","","","","psychophysics","271","615789","0.0-13.0-0.0-1.0-0.0-0.31","632","","f","","","","","","","","","","","","","key","f","16.652660377357673","640","356","f","true","img/C_ambi40.png","常人","image_first",""
"","","","","","html-keyboard-response","272","616104","0.0-13.0-0.0-1.0-0.0-1.31","null","<span style='color:GreenYellow; font-size: 70px;'>正确! </span>","null","","","","","","","","","","","","","","","","","","","","","","","feedback_test"
"","","","","","psychophysics","273","617737","0.0-13.0-0.0-1.0-0.0-0.32","475","","j","","","","","","","","","","","","","key","j","16.653134020619074","640","356","f","false","img/S_ambi40.png","好人","image_first",""
"","","","","","html-keyboard-response","274","618047","0.0-13.0-0.0-1.0-0.0-1.32","null","<span style='color:red; font-size: 70px;'>错误! </span>","null","","","","","","","","","","","","","","","","","","","","","","","feedback_test"
"","","","","","psychophysics","275","619895","0.0-13.0-0.0-1.0-0.0-0.33","685","","f","","","","","","","","","","","","","key","f","16.6525181818182","640","356","f","true","img/S_ambi40.png","常人","image_first",""
"","","","","","html-keyboard-response","276","620208","0.0-13.0-0.0-1.0-0.0-1.33","null","<span style='color:GreenYellow; font-size: 70px;'>正确! </span>","null","","","","","","","","","","","","","","","","","","","","","","","feedback_test"
"","","","","","psychophysics","277","622152","0.0-13.0-0.0-1.0-0.0-0.34","792","","j","","","","","","","","","","","","","key","j","16.6527391304343","640","356","f","false","img/C_ambi40.png","坏人","image_first",""
"","","","","","html-keyboard-response","278","622467","0.0-13.0-0.0-1.0-0.0-1.34","null","<span style='color:red; font-size: 70px;'>错误! </span>","null","","","","","","","","","","","","","","","","","","","","","","","feedback_test"
"","","","","","psychophysics","279","624254","0.0-13.0-0.0-1.0-0.0-0.35","630","","f","","","","","","","","","","","","","key","f","16.650754716980956","640","356","f","true","img/T_ambi40.png","好人","image_first",""
"","","","","","html-keyboard-response","280","624572","0.0-13.0-0.0-1.0-0.0-1.35","null","<span style='color:GreenYellow; font-size: 70px;'>正确! </span>","null","","","","","","","","","","","","","","","","","","","","","","","feedback_test"
"","","","","","psychophysics","281","626263","0.0-13.0-0.0-1.0-0.0-0.36","538","","j","","","","","","","","","","","","","key","j","16.653190000000176","640","356","f","false","img/S_ambi40.png","好人","image_first",""
"","","","","","html-keyboard-response","282","626576","0.0-13.0-0.0-1.0-0.0-1.36","null","<span style='color:red; font-size: 70px;'>错误! </span>","null","","","","","","","","","","","","","","","","","","","","","","","feedback_test"
"","","","","","psychophysics","283","628557","0.0-13.0-0.0-1.0-0.0-0.37","820","","j","","","","","","","","","","","","","key","j","16.653372881355917","640","356","j","true","img/S_ambi40.png","坏人","image_first",""
"","","","","","html-keyboard-response","284","628868","0.0-13.0-0.0-1.0-0.0-1.37","null","<span style='color:GreenYellow; font-size: 70px;'>正确! </span>","null","","","","","","","","","","","","","","","","","","","","","","","feedback_test"
"","","","","","psychophysics","285","630590","0.0-13.0-0.0-1.0-0.0-0.38","570","","f","","","","","","","","","","","","","key","f","16.652666666667095","640","356","f","true","img/C_ambi40.png","常人","image_first",""
"","","","","","html-keyboard-response","286","630901","0.0-13.0-0.0-1.0-0.0-1.38","null","<span style='color:GreenYellow; font-size: 70px;'>正确! </span>","null","","","","","","","","","","","","","","","","","","","","","","","feedback_test"
"","","","","","psychophysics","287","632518","0.0-13.0-0.0-1.0-0.0-0.39","466","","j","","","","","","","","","","","","","key","j","16.65302083333275","640","356","j","true","img/C_ambi40.png","好人","image_first",""
"","","","","","html-keyboard-response","288","632830","0.0-13.0-0.0-1.0-0.0-1.39","null","<span style='color:GreenYellow; font-size: 70px;'>正确! </span>","null","","","","","","","","","","","","","","","","","","","","","","","feedback_test"
"","","","","","psychophysics","289","634545","0.0-13.0-0.0-1.0-0.0-0.40","563","","f","","","","","","","","","","","","","key","f","16.653833333334394","640","356","f","true","img/T_ambi40.png","坏人","image_first",""
"","","","","","html-keyboard-response","290","634854","0.0-13.0-0.0-1.0-0.0-1.40","null","<span style='color:GreenYellow; font-size: 70px;'>正确! </span>","null","","","","","","","","","","","","","","","","","","","","","","","feedback_test"
"","","","","","psychophysics","291","636822","0.0-13.0-0.0-1.0-0.0-0.41","810","","f","","","","","","","","","","","","","key","f","16.652880341881232","640","356","f","true","img/T_ambi40.png","好人","image_first",""
"","","","","","html-keyboard-response","292","637136","0.0-13.0-0.0-1.0-0.0-1.41","null","<span style='color:GreenYellow; font-size: 70px;'>正确! </span>","null","","","","","","","","","","","","","","","","","","","","","","","feedback_test"
"","","","","","psychophysics","293","639202","0.0-13.0-0.0-1.0-0.0-0.42","909","","f","","","","","","","","","","","","","key","f","16.649666666666544","640","356","j","false","img/S_ambi40.png","坏人","image_first",""
"","","","","","html-keyboard-response","294","639510","0.0-13.0-0.0-1.0-0.0-1.42","null","<span style='color:red; font-size: 70px;'>错误! </span>","null","","","","","","","","","","","","","","","","","","","","","","","feedback_test"
"","","","","","psychophysics","295","641327","0.0-13.0-0.0-1.0-0.0-0.43","652","","j","","","","","","","","","","","","","key","j","16.653694444444866","640","356","j","true","img/T_ambi40.png","常人","image_first",""
"","","","","","html-keyboard-response","296","641638","0.0-13.0-0.0-1.0-0.0-1.43","null","<span style='color:GreenYellow; font-size: 70px;'>正确! </span>","null","","","","","","","","","","","","","","","","","","","","","","","feedback_test"
"","","","","","psychophysics","297","643580","0.0-13.0-0.0-1.0-0.0-0.44","790","","f","","","","","","","","","","","","","key","f","16.653275862068202","640","356","f","true","img/S_ambi40.png","常人","image_first",""
"","","","","","html-keyboard-response","298","643888","0.0-13.0-0.0-1.0-0.0-1.44","null","<span style='color:GreenYellow; font-size: 70px;'>正确! </span>","null","","","","","","","","","","","","","","","","","","","","","","","feedback_test"
"","","","","","psychophysics","299","645615","0.0-13.0-0.0-1.0-0.0-0.45","576","","f","","","","","","","","","","","","","key","f","16.522686274509933","640","356","f","true","img/C_ambi40.png","坏人","image_first",""
"","","","","","html-keyboard-response","300","645923","0.0-13.0-0.0-1.0-0.0-1.45","null","<span style='color:GreenYellow; font-size: 70px;'>正确! </span>","null","","","","","","","","","","","","","","","","","","","","","","","feedback_test"
"","","","","","psychophysics","301","647867","0.0-13.0-0.0-1.0-0.0-0.46","780","","j","","","","","","","","","","","","","key","j","16.650965217391597","640","356","j","true","img/T_ambi40.png","常人","image_first",""
"","","","","","html-keyboard-response","302","648177","0.0-13.0-0.0-1.0-0.0-1.46","null","<span style='color:GreenYellow; font-size: 70px;'>正确! </span>","null","","","","","","","","","","","","","","","","","","","","","","","feedback_test"
"","","","","","psychophysics","303","649859","0.0-13.0-0.0-1.0-0.0-0.47","524","","j","","","","","","","","","","","","","key","j","16.653469999999505","640","356","j","true","img/C_ambi40.png","好人","image_first",""
"","","","","","html-keyboard-response","304","650179","0.0-13.0-0.0-1.0-0.0-1.47","null","<span style='color:GreenYellow; font-size: 70px;'>正确! </span>","null","","","","","","","","","","","","","","","","","","","","","","","feedback_test"
"","","","","","psychophysics","305","652104","0.0-13.0-0.0-1.0-0.0-0.48","770","","f","","","","","","","","","","","","","key","f","16.652156521739318","640","356","f","true","img/S_ambi40.png","常人","image_first",""
"","","","","","html-keyboard-response","306","652413","0.0-13.0-0.0-1.0-0.0-1.48","null","<span style='color:GreenYellow; font-size: 70px;'>正确! </span>","null","","","","","","","","","","","","","","","","","","","","","","","feedback_test"
"","","","","","psychophysics","307","654177","0.0-13.0-0.0-1.0-0.0-0.49","612","","f","","","","","","","","","","","","","key","f","16.65273333333344","640","356","f","true","img/C_ambi40.png","坏人","image_first",""
"","","","","","html-keyboard-response","308","654498","0.0-13.0-0.0-1.0-0.0-1.49","null","<span style='color:GreenYellow; font-size: 70px;'>正确! </span>","null","","","","","","","","","","","","","","","","","","","","","","","feedback_test"
"","","","","","psychophysics","309","656449","0.0-13.0-0.0-1.0-0.0-0.50","799","","j","","","","","","","","","","","","","key","j","16.653870689655566","640","356","j","true","img/S_ambi40.png","坏人","image_first",""
"","","","","","html-keyboard-response","310","656770","0.0-13.0-0.0-1.0-0.0-1.50","null","<span style='color:GreenYellow; font-size: 70px;'>正确! </span>","null","","","","","","","","","","","","","","","","","","","","","","","feedback_test"
"","","","","","psychophysics","311","658501","0.0-13.0-0.0-1.0-0.0-0.51","574","","f","","","","","","","","","","","","","key","f","16.652747572815606","640","356","f","true","img/C_ambi40.png","常人","image_first",""
"","","","","","html-keyboard-response","312","658809","0.0-13.0-0.0-1.0-0.0-1.51","null","<span style='color:GreenYellow; font-size: 70px;'>正确! </span>","null","","","","","","","","","","","","","","","","","","","","","","","feedback_test"
"","","","","","psychophysics","313","660480","0.0-13.0-0.0-1.0-0.0-0.52","518","","f","","","","","","","","","","","","","key","f","16.50781818181794","640","356","j","false","img/T_ambi40.png","常人","image_first",""
"","","","","","html-keyboard-response","314","660790","0.0-13.0-0.0-1.0-0.0-1.52","null","<span style='color:red; font-size: 70px;'>错误! </span>","null","","","","","","","","","","","","","","","","","","","","","","","feedback_test"
"","","","","","psychophysics","315","662472","0.0-13.0-0.0-1.0-0.0-0.53","531","","j","","","","","","","","","","","","","key","j","16.51606060606145","640","356","j","true","img/C_ambi40.png","好人","image_first",""
"","","","","","html-keyboard-response","316","662783","0.0-13.0-0.0-1.0-0.0-1.53","null","<span style='color:GreenYellow; font-size: 70px;'>正确! </span>","null","","","","","","","","","","","","","","","","","","","","","","","feedback_test"
"","","","","","psychophysics","317","664739","0.0-13.0-0.0-1.0-0.0-0.54","799","","f","","","","","","","","","","","","","key","f","16.65282758620692","640","356","f","true","img/S_ambi40.png","好人","image_first",""
"","","","","","html-keyboard-response","318","665057","0.0-13.0-0.0-1.0-0.0-1.54","null","<span style='color:GreenYellow; font-size: 70px;'>正确! </span>","null","","","","","","","","","","","","","","","","","","","","","","","feedback_test"
"","","","","","psychophysics","319","666813","0.0-13.0-0.0-1.0-0.0-0.55","592","","j","","","","","","","","","","","","","key","j","16.653144230769474","640","356","j","true","img/C_ambi40.png","好人","image_first",""
"","","","","","html-keyboard-response","320","667130","0.0-13.0-0.0-1.0-0.0-1.55","null","<span style='color:GreenYellow; font-size: 70px;'>正确! </span>","null","","","","","","","","","","","","","","","","","","","","","","","feedback_test"
"","","","","","psychophysics","321","669018","0.0-13.0-0.0-1.0-0.0-0.56","731","","f","","","","","","","","","","","","","key","f","16.652839285714435","640","356","f","true","img/T_ambi40.png","坏人","image_first",""
"","","","","","html-keyboard-response","322","669347","0.0-13.0-0.0-1.0-0.0-1.56","null","<span style='color:GreenYellow; font-size: 70px;'>正确! </span>","null","","","","","","","","","","","","","","","","","","","","","","","feedback_test"
"","","","","","psychophysics","323","671173","0.0-13.0-0.0-1.0-0.0-0.57","673","","f","","","","","","","","","","","","","key","f","16.65256880733949","640","356","j","false","img/S_ambi40.png","坏人","image_first",""
"","","","","","html-keyboard-response","324","671491","0.0-13.0-0.0-1.0-0.0-1.57","null","<span style='color:red; font-size: 70px;'>错误! </span>","null","","","","","","","","","","","","","","","","","","","","","","","feedback_test"
"","","","","","psychophysics","325","673261","0.0-13.0-0.0-1.0-0.0-0.58","615","","f","","","","","","","","","","","","","key","f","16.6531619047613","640","356","f","true","img/T_ambi40.png","好人","image_first",""
"","","","","","html-keyboard-response","326","673577","0.0-13.0-0.0-1.0-0.0-1.58","null","<span style='color:GreenYellow; font-size: 70px;'>正确! </span>","null","","","","","","","","","","","","","","","","","","","","","","","feedback_test"
"","","","","","psychophysics","327","675369","0.0-13.0-0.0-1.0-0.0-0.59","639","","j","","","","","","","","","","","","","key","j","16.652915887850135","640","356","j","true","img/T_ambi40.png","常人","image_first",""
"","","","","","html-keyboard-response","328","675691","0.0-13.0-0.0-1.0-0.0-1.59","null","<span style='color:GreenYellow; font-size: 70px;'>正确! </span>","null","","","","","","","","","","","","","","","","","","","","","","","feedback_test"
"","","","","","html-keyboard-response","329","679247","0.0-13.0-0.0-1.0-1.0","3554","<style>.context{color:white; font-size: 35px; line-height:40px}</style>                              <div><p class='context'>您正确回答了73% 的试次。</p><p class='context'>您的平均反应时为679毫秒。</p><p class='context'>请按任意键进入休息</p></div>","enter","","","","","","","","","","","","","","","","","","","","","","",""
"","","","","","html-button-response","330","688283","0.0-13.0-0.0-1.0-2.0","9031","
                      <p>您当前还剩余3组实验</p>
                      <p>现在是休息时间，当您结束休息后，您可以点击 结束休息 按钮 继续</p>
                      <p>建议休息时间还剩余<span id=""iii"">60</span>秒</p>","0","","","","","","","","","","","","","","","","","","","","","","",""
"","","","","","psychophysics","331","690084","0.0-13.0-0.0-1.0-0.1-0.60","648","","f","","","","","","","","","","","","","key","f","16.65312264150861","640","356","f","true","img/C_ambi40.png","坏人","image_first",""
"","","","","","html-keyboard-response","332","690403","0.0-13.0-0.0-1.0-0.1-1.60","null","<span style='color:GreenYellow; font-size: 70px;'>正确! </span>","null","","","","","","","","","","","","","","","","","","","","","","","feedback_test"
"","","","","","psychophysics","333","693062","0.0-13.0-0.0-1.0-0.1-0.61","null","","null","","","","","","","","","","","","","key","null","16.653012658227706","640","356","f","false","img/C_ambi40.png","常人","image_first",""
"","","","","","html-keyboard-response","334","693377","0.0-13.0-0.0-1.0-0.1-1.61","null","<span class='add_' style='color:yellow; font-size: 70px;'> 太慢! </span>","null","","","","","","","","","","","","","","","","","","","","","","","feedback_test"
"","","","","","psychophysics","335","695322","0.0-13.0-0.0-1.0-0.1-0.62","791","","f","","","","","","","","","","","","","key","f","16.652784482758605","640","356","f","true","img/T_ambi40.png","好人","image_first",""
"","","","","","html-keyboard-response","336","695639","0.0-13.0-0.0-1.0-0.1-1.62","null","<span style='color:GreenYellow; font-size: 70px;'>正确! </span>","null","","","","","","","","","","","","","","","","","","","","","","","feedback_test"
"","","","","","psychophysics","337","697366","0.0-13.0-0.0-1.0-0.1-0.63","570","","f","","","","","","","","","","","","","key","f","16.65271844660176","640","356","j","false","img/S_ambi40.png","坏人","image_first",""
"","","","","","html-keyboard-response","338","697675","0.0-13.0-0.0-1.0-0.1-1.63","null","<span style='color:red; font-size: 70px;'>错误! </span>","null","","","","","","","","","","","","","","","","","","","","","","","feedback_test"
"","","","","","psychophysics","339","699516","0.0-13.0-0.0-1.0-0.1-0.64","689","","f","","","","","","","","","","","","","key","f","16.65070000000044","640","356","f","true","img/S_ambi40.png","好人","image_first",""
"","","","","","html-keyboard-response","340","699824","0.0-13.0-0.0-1.0-0.1-1.64","null","<span style='color:GreenYellow; font-size: 70px;'>正确! </span>","null","","","","","","","","","","","","","","","","","","","","","","","feedback_test"
"","","","","","psychophysics","341","701708","0.0-13.0-0.0-1.0-0.1-0.65","733","","j","","","","","","","","","","","","","key","j","16.652875000000808","640","356","j","true","img/C_ambi40.png","好人","image_first",""
"","","","","","html-keyboard-response","342","702022","0.0-13.0-0.0-1.0-0.1-1.65","null","<span style='color:GreenYellow; font-size: 70px;'>正确! </span>","null","","","","","","","","","","","","","","","","","","","","","","","feedback_test"
"","","","","","psychophysics","343","703719","0.0-13.0-0.0-1.0-0.1-0.66","545","","f","","","","","","","","","","","","","key","f","16.653287128712474","640","356","f","true","img/T_ambi40.png","坏人","image_first",""
"","","","","","html-keyboard-response","344","704026","0.0-13.0-0.0-1.0-0.1-1.66","null","<span style='color:GreenYellow; font-size: 70px;'>正确! </span>","null","","","","","","","","","","","","","","","","","","","","","","","feedback_test"
"","","","","","psychophysics","345","705800","0.0-13.0-0.0-1.0-0.1-0.67","612","","f","","","","","","","","","","","","","key","f","16.652799999999946","640","356","j","false","img/S_ambi40.png","坏人","image_first",""
"","","","","","html-keyboard-response","346","706123","0.0-13.0-0.0-1.0-0.1-1.67","null","<span style='color:red; font-size: 70px;'>错误! </span>","null","","","","","","","","","","","","","","","","","","","","","","","feedback_test"
"","","","","","psychophysics","347","707862","0.0-13.0-0.0-1.0-0.1-0.68","576","","f","","","","","","","","","","","","","key","f","16.651980582524082","640","356","f","true","img/S_ambi40.png","常人","image_first",""
"","","","","","html-keyboard-response","348","708176","0.0-13.0-0.0-1.0-0.1-1.68","null","<span style='color:GreenYellow; font-size: 70px;'>正确! </span>","null","","","","","","","","","","","","","","","","","","","","","","","feedback_test"
"","","","","","psychophysics","349","709839","0.0-13.0-0.0-1.0-0.1-0.69","503","","f","","","","","","","","","","","","","key","f","16.65289898989887","640","356","j","false","img/T_ambi40.png","常人","image_first",""
"","","","","","html-keyboard-response","350","710163","0.0-13.0-0.0-1.0-0.1-1.69","null","<span style='color:red; font-size: 70px;'>错误! </span>","null","","","","","","","","","","","","","","","","","","","","","","","feedback_test"
"","","","","","psychophysics","351","711838","0.0-13.0-0.0-1.0-0.1-0.70","521","","j","","","","","","","","","","","","","key","j","16.65076000000001","640","356","j","true","img/T_ambi40.png","常人","image_first",""
"","","","","","html-keyboard-response","352","712156","0.0-13.0-0.0-1.0-0.1-1.70","null","<span style='color:GreenYellow; font-size: 70px;'>正确! </span>","null","","","","","","","","","","","","","","","","","","","","","","","feedback_test"
"","","","","","psychophysics","353","713889","0.0-13.0-0.0-1.0-0.1-0.71","581","","j","","","","","","","","","","","","","key","j","16.65301941747515","640","356","j","true","img/C_ambi40.png","好人","image_first",""
"","","","","","html-keyboard-response","354","714211","0.0-13.0-0.0-1.0-0.1-1.71","null","<span style='color:GreenYellow; font-size: 70px;'>正确! </span>","null","","","","","","","","","","","","","","","","","","","","","","","feedback_test"
"","","","","","psychophysics","355","715819","0.0-13.0-0.0-1.0-0.1-0.72","455","","j","","","","","","","","","","","","","key","j","16.6556770833328","640","356","j","true","img/C_ambi40.png","好人","image_first",""
"","","","","","html-keyboard-response","356","716139","0.0-13.0-0.0-1.0-0.1-1.72","null","<span style='color:GreenYellow; font-size: 70px;'>正确! </span>","null","","","","","","","","","","","","","","","","","","","","","","","feedback_test"
"","","","","","psychophysics","357","717738","0.0-13.0-0.0-1.0-0.1-0.73","444","","f","","","","","","","","","","","","","key","f","16.65337894736838","640","356","f","true","img/S_ambi40.png","常人","image_first",""
"","","","","","html-keyboard-response","358","718051","0.0-13.0-0.0-1.0-0.1-1.73","null","<span style='color:GreenYellow; font-size: 70px;'>正确! </span>","null","","","","","","","","","","","","","","","","","","","","","","","feedback_test"
"","","","","","psychophysics","359","719853","0.0-13.0-0.0-1.0-0.1-0.74","646","","f","","","","","","","","","","","","","key","f","16.653299065421024","640","356","f","true","img/T_ambi40.png","好人","image_first",""
"","","","","","html-keyboard-response","360","720169","0.0-13.0-0.0-1.0-0.1-1.74","null","<span style='color:GreenYellow; font-size: 70px;'>正确! </span>","null","","","","","","","","","","","","","","","","","","","","","","","feedback_test"
"","","","","","psychophysics","361","722017","0.0-13.0-0.0-1.0-0.1-0.75","692","","f","","","","","","","","","","","","","key","f","16.6534363636366","640","356","f","true","img/C_ambi40.png","坏人","image_first",""
"","","","","","html-keyboard-response","362","722325","0.0-13.0-0.0-1.0-0.1-1.75","null","<span style='color:GreenYellow; font-size: 70px;'>正确! </span>","null","","","","","","","","","","","","","","","","","","","","","","","feedback_test"
"","","","","","psychophysics","363","724083","0.0-13.0-0.0-1.0-0.1-0.76","593","","f","","","","","","","","","","","","","key","f","16.65329807692279","640","356","f","true","img/T_ambi40.png","坏人","image_first",""
"","","","","","html-keyboard-response","364","724398","0.0-13.0-0.0-1.0-0.1-1.76","null","<span style='color:GreenYellow; font-size: 70px;'>正确! </span>","null","","","","","","","","","","","","","","","","","","","","","","","feedback_test"
"","","","","","psychophysics","365","726093","0.0-13.0-0.0-1.0-0.1-0.77","537","","f","","","","","","","","","","","","","key","f","16.653514851485195","640","356","j","false","img/S_ambi40.png","坏人","image_first",""
"","","","","","html-keyboard-response","366","726406","0.0-13.0-0.0-1.0-0.1-1.77","null","<span style='color:red; font-size: 70px;'>错误! </span>","null","","","","","","","","","","","","","","","","","","","","","","","feedback_test"
"","","","","","psychophysics","367","728012","0.0-13.0-0.0-1.0-0.1-0.78","441","","j","","","","","","","","","","","","","key","j","16.65240000000003","640","356","j","true","img/C_ambi40.png","好人","image_first",""
"","","","","","html-keyboard-response","368","728325","0.0-13.0-0.0-1.0-0.1-1.78","null","<span style='color:GreenYellow; font-size: 70px;'>正确! </span>","null","","","","","","","","","","","","","","","","","","","","","","","feedback_test"
"","","","","","psychophysics","369","730036","0.0-13.0-0.0-1.0-0.1-0.79","550","","f","","","","","","","","","","","","","key","f","16.653019801980935","640","356","j","false","img/T_ambi40.png","常人","image_first",""
"","","","","","html-keyboard-response","370","730344","0.0-13.0-0.0-1.0-0.1-1.79","null","<span style='color:red; font-size: 70px;'>错误! </span>","null","","","","","","","","","","","","","","","","","","","","","","","feedback_test"
"","","","","","psychophysics","371","732521","0.0-13.0-0.0-1.0-0.1-0.80","1020","","j","","","","","","","","","","","","","key","j","16.652469230769203","640","356","j","true","img/T_ambi40.png","常人","image_first",""
"","","","","","html-keyboard-response","372","732841","0.0-13.0-0.0-1.0-0.1-1.80","null","<span style='color:GreenYellow; font-size: 70px;'>正确! </span>","null","","","","","","","","","","","","","","","","","","","","","","","feedback_test"
"","","","","","psychophysics","373","735006","0.0-13.0-0.0-1.0-0.1-0.81","1008","","j","","","","","","","","","","","","","key","j","16.65142635658903","640","356","j","true","img/S_ambi40.png","坏人","image_first",""
"","","","","","html-keyboard-response","374","735320","0.0-13.0-0.0-1.0-0.1-1.81","null","<span style='color:GreenYellow; font-size: 70px;'>正确! </span>","null","","","","","","","","","","","","","","","","","","","","","","","feedback_test"
"","","","","","psychophysics","375","737074","0.0-13.0-0.0-1.0-0.1-0.82","594","","f","","","","","","","","","","","","","key","f","16.65292307692289","640","356","f","true","img/S_ambi40.png","好人","image_first",""
"","","","","","html-keyboard-response","376","737385","0.0-13.0-0.0-1.0-0.1-1.82","null","<span style='color:GreenYellow; font-size: 70px;'>正确! </span>","null","","","","","","","","","","","","","","","","","","","","","","","feedback_test"
"","","","","","psychophysics","377","739145","0.0-13.0-0.0-1.0-0.1-0.83","600","","f","","","","","","","","","","","","","key","f","16.65288461538484","640","356","f","true","img/C_ambi40.png","常人","image_first",""
"","","","","","html-keyboard-response","378","739464","0.0-13.0-0.0-1.0-0.1-1.83","null","<span style='color:GreenYellow; font-size: 70px;'>正确! </span>","null","","","","","","","","","","","","","","","","","","","","","","","feedback_test"
"","","","","","psychophysics","379","741265","0.0-13.0-0.0-1.0-0.1-0.84","644","","f","","","","","","","","","","","","","key","f","16.80911320754775","640","356","f","true","img/C_ambi40.png","常人","image_first",""
"","","","","","html-keyboard-response","380","741580","0.0-13.0-0.0-1.0-0.1-1.84","null","<span style='color:GreenYellow; font-size: 70px;'>正确! </span>","null","","","","","","","","","","","","","","","","","","","","","","","feedback_test"
"","","","","","psychophysics","381","743298","0.0-13.0-0.0-1.0-0.1-0.85","560","","j","","","","","","","","","","","","","key","j","16.6567352941173","640","356","j","true","img/C_ambi40.png","好人","image_first",""
"","","","","","html-keyboard-response","382","743607","0.0-13.0-0.0-1.0-0.1-1.85","null","<span style='color:GreenYellow; font-size: 70px;'>正确! </span>","null","","","","","","","","","","","","","","","","","","","","","","","feedback_test"
"","","","","","psychophysics","383","745285","0.0-13.0-0.0-1.0-0.1-0.86","526","","f","","","","","","","","","","","","","key","f","16.65320202020218","640","356","f","true","img/C_ambi40.png","坏人","image_first",""
"","","","","","html-keyboard-response","384","745597","0.0-13.0-0.0-1.0-0.1-1.86","null","<span style='color:GreenYellow; font-size: 70px;'>正确! </span>","null","","","","","","","","","","","","","","","","","","","","","","","feedback_test"
"","","","","","psychophysics","385","747332","0.0-13.0-0.0-1.0-0.1-0.87","579","","f","","","","","","","","","","","","","key","f","16.653368932039033","640","356","f","true","img/T_ambi40.png","好人","image_first",""
"","","","","","html-keyboard-response","386","747642","0.0-13.0-0.0-1.0-0.1-1.87","null","<span style='color:GreenYellow; font-size: 70px;'>正确! </span>","null","","","","","","","","","","","","","","","","","","","","","","","feedback_test"
"","","","","","psychophysics","387","749295","0.0-13.0-0.0-1.0-0.1-0.88","493","","j","","","","","","","","","","","","","key","j","16.653010204081585","640","356","j","true","img/C_ambi40.png","好人","image_first",""
"","","","","","html-keyboard-response","388","749617","0.0-13.0-0.0-1.0-0.1-1.88","null","<span style='color:GreenYellow; font-size: 70px;'>正确! </span>","null","","","","","","","","","","","","","","","","","","","","","","","feedback_test"
"","","","","","psychophysics","389","751409","0.0-13.0-0.0-1.0-0.1-0.89","640","","f","","","","","","","","","","","","","key","f","16.525594339622536","640","356","f","true","img/S_ambi40.png","常人","image_first",""
"","","","","","html-keyboard-response","390","751717","0.0-13.0-0.0-1.0-0.1-1.89","null","<span style='color:GreenYellow; font-size: 70px;'>正确! </span>","null","","","","","","","","","","","","","","","","","","","","","","","feedback_test"
"","","","","","psychophysics","391","753656","0.0-13.0-0.0-1.0-0.1-0.90","773","","f","","","","","","","","","","","","","key","f","16.65247826086985","640","356","j","false","img/T_ambi40.png","常人","image_first",""
"","","","","","html-keyboard-response","392","753978","0.0-13.0-0.0-1.0-0.1-1.90","null","<span style='color:red; font-size: 70px;'>错误! </span>","null","","","","","","","","","","","","","","","","","","","","","","","feedback_test"
"","","","","","psychophysics","393","755652","0.0-13.0-0.0-1.0-0.1-0.91","521","","f","","","","","","","","","","","","","key","f","16.65307999999961","640","356","f","true","img/S_ambi40.png","好人","image_first",""
"","","","","","html-keyboard-response","394","755959","0.0-13.0-0.0-1.0-0.1-1.91","null","<span style='color:GreenYellow; font-size: 70px;'>正确! </span>","null","","","","","","","","","","","","","","","","","","","","","","","feedback_test"
"","","","","","psychophysics","395","757749","0.0-13.0-0.0-1.0-0.1-0.92","636","","j","","","","","","","","","","","","","key","j","16.655158878505343","640","356","j","true","img/S_ambi40.png","坏人","image_first",""
"","","","","","html-keyboard-response","396","758062","0.0-13.0-0.0-1.0-0.1-1.92","null","<span style='color:GreenYellow; font-size: 70px;'>正确! </span>","null","","","","","","","","","","","","","","","","","","","","","","","feedback_test"
"","","","","","psychophysics","397","759835","0.0-13.0-0.0-1.0-0.1-0.93","608","","f","","","","","","","","","","","","","key","f","16.653485714286077","640","356","f","true","img/T_ambi40.png","坏人","image_first",""
"","","","","","html-keyboard-response","398","760146","0.0-13.0-0.0-1.0-0.1-1.93","null","<span style='color:GreenYellow; font-size: 70px;'>正确! </span>","null","","","","","","","","","","","","","","","","","","","","","","","feedback_test"
"","","","","","psychophysics","399","761789","0.0-13.0-0.0-1.0-0.1-0.94","487","","f","","","","","","","","","","","","","key","f","16.649474226804834","640","356","j","false","img/S_ambi40.png","坏人","image_first",""
"","","","","","html-keyboard-response","400","762093","0.0-13.0-0.0-1.0-0.1-1.94","null","<span style='color:red; font-size: 70px;'>错误! </span>","null","","","","","","","","","","","","","","","","","","","","","","","feedback_test"
"","","","","","psychophysics","401","764103","0.0-13.0-0.0-1.0-0.1-0.95","845","","j","","","","","","","","","","","","","key","j","16.65455462184868","640","356","j","true","img/T_ambi40.png","常人","image_first",""
"","","","","","html-keyboard-response","402","764417","0.0-13.0-0.0-1.0-0.1-1.95","null","<span style='color:GreenYellow; font-size: 70px;'>正确! </span>","null","","","","","","","","","","","","","","","","","","","","","","","feedback_test"
"","","","","","psychophysics","403","766053","0.0-13.0-0.0-1.0-0.1-0.96","482","","f","","","","","","","","","","","","","key","f","16.652360824742065","640","356","f","true","img/T_ambi40.png","好人","image_first",""
"","","","","","html-keyboard-response","404","766364","0.0-13.0-0.0-1.0-0.1-1.96","null","<span style='color:GreenYellow; font-size: 70px;'>正确! </span>","null","","","","","","","","","","","","","","","","","","","","","","","feedback_test"
"","","","","","psychophysics","405","768135","0.0-13.0-0.0-1.0-0.1-0.97","615","","f","","","","","","","","","","","","","key","f","16.65175238095246","640","356","f","true","img/S_ambi40.png","好人","image_first",""
"","","","","","html-keyboard-response","406","768457","0.0-13.0-0.0-1.0-0.1-1.97","null","<span style='color:GreenYellow; font-size: 70px;'>正确! </span>","null","","","","","","","","","","","","","","","","","","","","","","","feedback_test"
"","","","","","psychophysics","407","771118","0.0-13.0-0.0-1.0-0.1-0.98","null","","null","","","","","","","","","","","","","key","null","16.65268987341772","640","356","f","false","img/S_ambi40.png","常人","image_first",""
"","","","","","html-keyboard-response","408","771433","0.0-13.0-0.0-1.0-0.1-1.98","null","<span class='add_' style='color:yellow; font-size: 70px;'> 太慢! </span>","null","","","","","","","","","","","","","","","","","","","","","","","feedback_test"
"","","","","","psychophysics","409","773177","0.0-13.0-0.0-1.0-0.1-0.99","593","","f","","","","","","","","","","","","","key","f","16.65307766990284","640","356","f","true","img/C_ambi40.png","坏人","image_first",""
"","","","","","html-keyboard-response","410","773486","0.0-13.0-0.0-1.0-0.1-1.99","null","<span style='color:GreenYellow; font-size: 70px;'>正确! </span>","null","","","","","","","","","","","","","","","","","","","","","","","feedback_test"
"","","","","","psychophysics","411","775278","0.0-13.0-0.0-1.0-0.1-0.100","630","","f","","","","","","","","","","","","","key","f","16.65307547169834","640","356","j","false","img/T_ambi40.png","常人","image_first",""
"","","","","","html-keyboard-response","412","775604","0.0-13.0-0.0-1.0-0.1-1.100","null","<span style='color:red; font-size: 70px;'>错误! </span>","null","","","","","","","","","","","","","","","","","","","","","","","feedback_test"
"","","","","","psychophysics","413","777521","0.0-13.0-0.0-1.0-0.1-0.101","758","","j","","","","","","","","","","","","","key","j","16.652991228070103","640","356","j","true","img/S_ambi40.png","坏人","image_first",""
"","","","","","html-keyboard-response","414","777831","0.0-13.0-0.0-1.0-0.1-1.101","null","<span style='color:GreenYellow; font-size: 70px;'>正确! </span>","null","","","","","","","","","","","","","","","","","","","","","","","feedback_test"
"","","","","","psychophysics","415","779468","0.0-13.0-0.0-1.0-0.1-0.102","473","","f","","","","","","","","","","","","","key","f","16.65348453608164","640","356","j","false","img/S_ambi40.png","坏人","image_first",""
"","","","","","html-keyboard-response","416","779774","0.0-13.0-0.0-1.0-0.1-1.102","null","<span style='color:red; font-size: 70px;'>错误! </span>","null","","","","","","","","","","","","","","","","","","","","","","","feedback_test"
"","","","","","psychophysics","417","781783","0.0-13.0-0.0-1.0-0.1-0.103","858","","f","","","","","","","","","","","","","key","f","16.652800000000084","640","356","f","true","img/T_ambi40.png","坏人","image_first",""
"","","","","","html-keyboard-response","418","782105","0.0-13.0-0.0-1.0-0.1-1.103","null","<span style='color:GreenYellow; font-size: 70px;'>正确! </span>","null","","","","","","","","","","","","","","","","","","","","","","","feedback_test"
"","","","","","psychophysics","419","783963","0.0-13.0-0.0-1.0-0.1-0.104","705","","j","","","","","","","","","","","","","key","j","16.652450450449585","640","356","j","true","img/C_ambi40.png","好人","image_first",""
"","","","","","html-keyboard-response","420","784283","0.0-13.0-0.0-1.0-0.1-1.104","null","<span style='color:GreenYellow; font-size: 70px;'>正确! </span>","null","","","","","","","","","","","","","","","","","","","","","","","feedback_test"
"","","","","","psychophysics","421","786331","0.0-13.0-0.0-1.0-0.1-0.105","892","","j","","","","","","","","","","","","","key","j","16.653155737705376","640","356","j","true","img/T_ambi40.png","常人","image_first",""
"","","","","","html-keyboard-response","422","786650","0.0-13.0-0.0-1.0-0.1-1.105","null","<span style='color:GreenYellow; font-size: 70px;'>正确! </span>","null","","","","","","","","","","","","","","","","","","","","","","","feedback_test"
"","","","","","psychophysics","423","788346","0.0-13.0-0.0-1.0-0.1-0.106","542","","f","","","","","","","","","","","","","key","f","16.652782178217645","640","356","f","true","img/C_ambi40.png","常人","image_first",""
"","","","","","html-keyboard-response","424","788654","0.0-13.0-0.0-1.0-0.1-1.106","null","<span style='color:GreenYellow; font-size: 70px;'>正确! </span>","null","","","","","","","","","","","","","","","","","","","","","","","feedback_test"
"","","","","","psychophysics","425","790419","0.0-13.0-0.0-1.0-0.1-0.107","599","","j","","","","","","","","","","","","","key","j","16.653266666666603","640","356","j","true","img/C_ambi40.png","好人","image_first",""
"","","","","","html-keyboard-response","426","790727","0.0-13.0-0.0-1.0-0.1-1.107","null","<span style='color:GreenYellow; font-size: 70px;'>正确! </span>","null","","","","","","","","","","","","","","","","","","","","","","","feedback_test"
"","","","","","psychophysics","427","792514","0.0-13.0-0.0-1.0-0.1-0.108","631","","j","","","","","","","","","","","","","key","j","16.652443396226275","640","356","f","false","img/T_ambi40.png","好人","image_first",""
"","","","","","html-keyboard-response","428","792829","0.0-13.0-0.0-1.0-0.1-1.108","null","<span style='color:red; font-size: 70px;'>错误! </span>","null","","","","","","","","","","","","","","","","","","","","","","","feedback_test"
"","","","","","psychophysics","429","794741","0.0-13.0-0.0-1.0-0.1-0.109","759","","f","","","","","","","","","","","","","key","f","16.651491228069318","640","356","f","true","img/C_ambi40.png","坏人","image_first",""
"","","","","","html-keyboard-response","430","795044","0.0-13.0-0.0-1.0-0.1-1.109","null","<span style='color:GreenYellow; font-size: 70px;'>正确! </span>","null","","","","","","","","","","","","","","","","","","","","","","","feedback_test"
"","","","","","psychophysics","431","796856","0.0-13.0-0.0-1.0-0.1-0.110","658","","j","","","","","","","","","","","","","key","j","16.652944444443737","640","356","j","true","img/T_ambi40.png","常人","image_first",""
"","","","","","html-keyboard-response","432","797167","0.0-13.0-0.0-1.0-0.1-1.110","null","<span style='color:GreenYellow; font-size: 70px;'>正确! </span>","null","","","","","","","","","","","","","","","","","","","","","","","feedback_test"
