"success","timeout","failed_images","failed_audio","failed_video","trial_type","trial_index","time_elapsed","internal_node_id","rt","stimulus","response","value","item_width_mm","item_height_mm","item_width_px","px2mm","view_dist_mm","item_width_deg","px2deg","scale_factor","win_width_deg","win_height_deg","view_history","response_type","key_press","avg_frame_time","center_x","center_y","correct_response","correct","Image","word","condition","screen_id"
"true","false","[]","[]","[]","preload","0","5","0.0-0.0","","","","","","","","","","","","","","","","","","","","","","","","","",""
"","","","","","html-keyboard-response","1","3646","0.0-1.0","3639","
     <p>您好，欢迎参加本次实验。</p>
     <p>为充分保障您的权利，请确保您已经知晓并同意《参与实验同意书》以及《数据公开知情同意书》。</p>
     <p>如果您未见过上述内容，请咨询实验员。</p>
     <p>如果您选择继续实验，则表示您已经清楚两份知情同意书的内容并同意。</p>
     <p> <div style = ""color: green""><按任意键至下页></div> </p>
     "," ","","","","","","","","","","","","","","","","","","","","","","",""
"","","","","","html-keyboard-response","2","4628","0.0-2.0","982","
     <p>本实验首先需要您填写一些基本个人信息。</p>
     <p> <div style = ""color: green""><按任意键至下页></div></p>
     "," ","","","","","","","","","","","","","","","","","","","","","","",""
"","","","","","call-function","3","4629","0.0-3.0-0.0","","","","","","","","","","","","","","","","","","","","","","","","","",""
"","","","","","survey-html-form","4","9532","0.0-3.0-1.0","4901","","{""Q0"":""6""}","","","","","","","","","","","","","","","","","","","","","","",""
"","","","","","html-button-response","5","10609","0.0-3.0-2.0","1075","<p style = 'color : white'>您的性别</p>","1","","","","","","","","","","","","","","","","","","","","","","",""
"","","","","","survey-html-form","6","14588","0.0-3.0-3.0","3978","","{""Q0"":""2004""}","","","","","","","","","","","","","","","","","","","","","","",""
"","","","","","survey-html-form","7","17172","0.0-3.0-4.0","2583","","{""Q0"":""5""}","","","","","","","","","","","","","","","","","","","","","","",""
"","","","","","virtual-chinrest","8","49238","0.0-4.0","32064","","","","85.6","53.98","602.5186842409702","7.034560926834008","405.5","12.050373684819403","50","0.6439634324183448","30.72","15.84","","","","","","","","","","","",""
"true","","","","","fullscreen","9","52246","0.0-5.0","","","","","","","","","","","","","","","","","","","","","","","","","",""
"","","","","","instructions","10","124812","0.0-6.0","72564","","","","","","","","","","","","","","[{""page_index"":0,""viewing_time"":3684},{""page_index"":1,""viewing_time"":38355},{""page_index"":2,""viewing_time"":20577},{""page_index"":3,""viewing_time"":9947}]","","","","","","","","","","",""
"","","","","","psychophysics","11","127489","0.0-7.0-0.0-0.0","null","","null","","","","","","","","","","","","","key","null","7.017989417989425","768","428","j","false","img/C_ambi40.png","常人","prac_image_first",""
"","","","","","html-keyboard-response","12","127801","0.0-7.0-0.0-1.0","null","<span class='add_' style='color:yellow; font-size: 70px;'> 太慢! </span>","null","","","","","","","","","","","","","","","","","","","","","","","feedback_test"
"","","","","","psychophysics","13","130453","0.0-7.0-0.0-0.1","null","","null","","","","","","","","","","","","","key","null","6.944568421052636","768","428","j","false","img/S_ambi40.png","坏人","prac_image_first",""
"","","","","","html-keyboard-response","14","130776","0.0-7.0-0.0-1.1","null","<span class='add_' style='color:yellow; font-size: 70px;'> 太慢! </span>","null","","","","","","","","","","","","","","","","","","","","","","","feedback_test"
"","","","","","psychophysics","15","132461","0.0-7.0-0.0-0.2","527","","j","","","","","","","","","","","","","key","j","6.944842323651431","768","428","f","false","img/T_ambi40.png","坏人","prac_image_first",""
"","","","","","html-keyboard-response","16","132781","0.0-7.0-0.0-1.2","null","<span style='color:red; font-size: 70px;'>错误! </span>","null","","","","","","","","","","","","","","","","","","","","","","","feedback_test"
"","","","","","psychophysics","17","134499","0.0-7.0-0.0-0.3","566","","f","","","","","","","","","","","","","key","f","6.944475609756158","768","428","f","true","img/C_ambi40.png","好人","prac_image_first",""
"","","","","","html-keyboard-response","18","134813","0.0-7.0-0.0-1.3","null","<span style='color:GreenYellow; font-size: 70px;'>正确! </span>","null","","","","","","","","","","","","","","","","","","","","","","","feedback_test"
"","","","","","psychophysics","19","136510","0.0-7.0-0.0-0.4","542","","j","","","","","","","","","","","","","key","j","6.944802469135801","768","428","f","false","img/S_ambi40.png","常人","prac_image_first",""
"","","","","","html-keyboard-response","20","136820","0.0-7.0-0.0-1.4","null","<span style='color:red; font-size: 70px;'>错误! </span>","null","","","","","","","","","","","","","","","","","","","","","","","feedback_test"
"","","","","","psychophysics","21","138678","0.0-7.0-0.0-0.5","704","","f","","","","","","","","","","","","","key","f","6.9448195488722355","768","428","f","true","img/S_ambi40.png","常人","prac_image_first",""
"","","","","","html-keyboard-response","22","138996","0.0-7.0-0.0-1.5","null","<span style='color:GreenYellow; font-size: 70px;'>正确! </span>","null","","","","","","","","","","","","","","","","","","","","","","","feedback_test"
"","","","","","psychophysics","23","140935","0.0-7.0-0.0-0.6","787","","f","","","","","","","","","","","","","key","f","6.944654676258998","768","428","j","false","img/T_ambi40.png","常人","prac_image_first",""
"","","","","","html-keyboard-response","24","141255","0.0-7.0-0.0-1.6","null","<span style='color:red; font-size: 70px;'>错误! </span>","null","","","","","","","","","","","","","","","","","","","","","","","feedback_test"
"","","","","","psychophysics","25","143047","0.0-7.0-0.0-0.7","637","","j","","","","","","","","","","","","","key","j","6.923124999999914","768","428","j","true","img/T_ambi40.png","好人","prac_image_first",""
"","","","","","html-keyboard-response","26","143356","0.0-7.0-0.0-1.7","null","<span style='color:GreenYellow; font-size: 70px;'>正确! </span>","null","","","","","","","","","","","","","","","","","","","","","","","feedback_test"
"","","","","","psychophysics","27","145332","0.0-7.0-0.0-0.8","823","","j","","","","","","","","","","","","","key","j","6.944989399293289","768","428","f","false","img/T_ambi40.png","坏人","prac_image_first",""
"","","","","","html-keyboard-response","28","145644","0.0-7.0-0.0-1.8","null","<span style='color:red; font-size: 70px;'>错误! </span>","null","","","","","","","","","","","","","","","","","","","","","","","feedback_test"
"","","","","","psychophysics","29","147285","0.0-7.0-0.0-0.9","489","","f","","","","","","","","","","","","","key","f","6.944646808510631","768","428","f","true","img/C_ambi40.png","好人","prac_image_first",""
"","","","","","html-keyboard-response","30","147606","0.0-7.0-0.0-1.9","null","<span style='color:GreenYellow; font-size: 70px;'>正确! </span>","null","","","","","","","","","","","","","","","","","","","","","","","feedback_test"
"","","","","","psychophysics","31","149351","0.0-7.0-0.0-0.10","592","","j","","","","","","","","","","","","","key","j","6.944796000000089","768","428","j","true","img/S_ambi40.png","好人","prac_image_first",""
"","","","","","html-keyboard-response","32","149659","0.0-7.0-0.0-1.10","null","<span style='color:GreenYellow; font-size: 70px;'>正确! </span>","null","","","","","","","","","","","","","","","","","","","","","","","feedback_test"
"","","","","","psychophysics","33","151376","0.0-7.0-0.0-0.11","561","","f","","","","","","","","","","","","","key","f","6.944311475409763","768","428","j","false","img/C_ambi40.png","坏人","prac_image_first",""
"","","","","","html-keyboard-response","34","151691","0.0-7.0-0.0-1.11","null","<span style='color:red; font-size: 70px;'>错误! </span>","null","","","","","","","","","","","","","","","","","","","","","","","feedback_test"
"","","","","","psychophysics","35","153397","0.0-7.0-0.0-0.12","554","","j","","","","","","","","","","","","","key","j","6.944500000000055","768","428","j","true","img/T_ambi40.png","常人","prac_image_first",""
"","","","","","html-keyboard-response","36","153719","0.0-7.0-0.0-1.12","null","<span style='color:GreenYellow; font-size: 70px;'>正确! </span>","null","","","","","","","","","","","","","","","","","","","","","","","feedback_test"
"","","","","","psychophysics","37","155353","0.0-7.0-0.0-0.13","482","","f","","","","","","","","","","","","","key","f","6.944230769230819","768","428","f","true","img/C_ambi40.png","好人","prac_image_first",""
"","","","","","html-keyboard-response","38","155667","0.0-7.0-0.0-1.13","null","<span style='color:GreenYellow; font-size: 70px;'>正确! </span>","null","","","","","","","","","","","","","","","","","","","","","","","feedback_test"
"","","","","","psychophysics","39","157380","0.0-7.0-0.0-0.14","558","","j","","","","","","","","","","","","","key","j","6.944722448979571","768","428","j","true","img/C_ambi40.png","坏人","prac_image_first",""
"","","","","","html-keyboard-response","40","157682","0.0-7.0-0.0-1.14","null","<span style='color:GreenYellow; font-size: 70px;'>正确! </span>","null","","","","","","","","","","","","","","","","","","","","","","","feedback_test"
"","","","","","psychophysics","41","159391","0.0-7.0-0.0-0.15","556","","f","","","","","","","","","","","","","key","f","6.944877551020389","768","428","f","true","img/S_ambi40.png","常人","prac_image_first",""
"","","","","","html-keyboard-response","42","159705","0.0-7.0-0.0-1.15","null","<span style='color:GreenYellow; font-size: 70px;'>正确! </span>","null","","","","","","","","","","","","","","","","","","","","","","","feedback_test"
"","","","","","psychophysics","43","161340","0.0-7.0-0.0-0.16","482","","j","","","","","","","","","","","","","key","j","6.944170940170885","768","428","f","false","img/T_ambi40.png","坏人","prac_image_first",""
"","","","","","html-keyboard-response","44","161642","0.0-7.0-0.0-1.16","null","<span style='color:red; font-size: 70px;'>错误! </span>","null","","","","","","","","","","","","","","","","","","","","","","","feedback_test"
"","","","","","psychophysics","45","163442","0.0-7.0-0.0-0.17","649","","f","","","","","","","","","","","","","key","f","6.944679536679616","768","428","f","true","img/S_ambi40.png","常人","prac_image_first",""
"","","","","","html-keyboard-response","46","163749","0.0-7.0-0.0-1.17","null","<span style='color:GreenYellow; font-size: 70px;'>正确! </span>","null","","","","","","","","","","","","","","","","","","","","","","","feedback_test"
"","","","","","psychophysics","47","165401","0.0-7.0-0.0-0.18","496","","f","","","","","","","","","","","","","key","f","6.978452991453048","768","428","f","true","img/C_ambi40.png","好人","prac_image_first",""
"","","","","","html-keyboard-response","48","165711","0.0-7.0-0.0-1.18","null","<span style='color:GreenYellow; font-size: 70px;'>正确! </span>","null","","","","","","","","","","","","","","","","","","","","","","","feedback_test"
"","","","","","psychophysics","49","167350","0.0-7.0-0.0-0.19","487","","f","","","","","","","","","","","","","key","f","6.9444170212766965","768","428","f","true","img/T_ambi40.png","坏人","prac_image_first",""
"","","","","","html-keyboard-response","50","167658","0.0-7.0-0.0-1.19","null","<span style='color:GreenYellow; font-size: 70px;'>正确! </span>","null","","","","","","","","","","","","","","","","","","","","","","","feedback_test"
"","","","","","psychophysics","51","169434","0.0-7.0-0.0-0.20","620","","j","","","","","","","","","","","","","key","j","6.944168627451005","768","428","j","true","img/C_ambi40.png","常人","prac_image_first",""
"","","","","","html-keyboard-response","52","169748","0.0-7.0-0.0-1.20","null","<span style='color:GreenYellow; font-size: 70px;'>正确! </span>","null","","","","","","","","","","","","","","","","","","","","","","","feedback_test"
"","","","","","psychophysics","53","171616","0.0-7.0-0.0-0.21","717","","f","","","","","","","","","","","","","key","f","6.944317164179068","768","428","j","false","img/T_ambi40.png","好人","prac_image_first",""
"","","","","","html-keyboard-response","54","171928","0.0-7.0-0.0-1.21","null","<span style='color:red; font-size: 70px;'>错误! </span>","null","","","","","","","","","","","","","","","","","","","","","","","feedback_test"
"","","","","","psychophysics","55","173658","0.0-7.0-0.0-0.22","579","","j","","","","","","","","","","","","","key","j","6.944653225806471","768","428","j","true","img/S_ambi40.png","好人","prac_image_first",""
"","","","","","html-keyboard-response","56","173967","0.0-7.0-0.0-1.22","null","<span style='color:GreenYellow; font-size: 70px;'>正确! </span>","null","","","","","","","","","","","","","","","","","","","","","","","feedback_test"
"","","","","","psychophysics","57","175932","0.0-7.0-0.0-0.23","812","","f","","","","","","","","","","","","","key","f","6.944302491103158","768","428","j","false","img/S_ambi40.png","坏人","prac_image_first",""
"","","","","","html-keyboard-response","58","176254","0.0-7.0-0.0-1.23","null","<span style='color:red; font-size: 70px;'>错误! </span>","null","","","","","","","","","","","","","","","","","","","","","","","feedback_test"
"","","","","","html-keyboard-response","59","178988","0.0-7.0-1.0-0.0","2731","<style>.context{color:white; font-size: 35px; line-height:40px}</style>                              <div><p class='context'>您正确回答了58% 的试次。</p><p class='context'>您的平均反应时为569毫秒。</p>","j","","","","","","","","","","","","","","","","","","","","","","",""
"","","","","","instructions","60","199884","0.0-7.0-1.0-1.0","20893","","","","","","","","","","","","","","[{""page_index"":0,""viewing_time"":15716},{""page_index"":1,""viewing_time"":3458},{""page_index"":2,""viewing_time"":1719}]","","","","","","","","","","",""
"","","","","","psychophysics","61","202184","0.0-7.1-0.1-0.24","1148","","j","","","","","","","","","","","","","key","j","6.944345454545427","768","428","j","true","img/S_ambi40.png","坏人","prac_image_first",""
"","","","","","html-keyboard-response","62","202500","0.0-7.1-0.1-1.24","null","<span style='color:GreenYellow; font-size: 70px;'>正确! </span>","null","","","","","","","","","","","","","","","","","","","","","","","feedback_test"
"","","","","","psychophysics","63","204219","0.0-7.1-0.1-0.25","564","","j","","","","","","","","","","","","","key","j","6.942244897959207","768","428","j","true","img/C_ambi40.png","坏人","prac_image_first",""
"","","","","","html-keyboard-response","64","204536","0.0-7.1-0.1-1.25","null","<span style='color:GreenYellow; font-size: 70px;'>正确! </span>","null","","","","","","","","","","","","","","","","","","","","","","","feedback_test"
"","","","","","psychophysics","65","206352","0.0-7.1-0.1-0.26","663","","j","","","","","","","","","","","","","key","j","6.944680769230763","768","428","j","true","img/S_ambi40.png","好人","prac_image_first",""
"","","","","","html-keyboard-response","66","206664","0.0-7.1-0.1-1.26","null","<span style='color:GreenYellow; font-size: 70px;'>正确! </span>","null","","","","","","","","","","","","","","","","","","","","","","","feedback_test"
"","","","","","psychophysics","67","208355","0.0-7.1-0.1-0.27","539","","f","","","","","","","","","","","","","key","f","6.945177685950444","768","428","f","true","img/S_ambi40.png","常人","prac_image_first",""
"","","","","","html-keyboard-response","68","208661","0.0-7.1-0.1-1.27","null","<span style='color:GreenYellow; font-size: 70px;'>正确! </span>","null","","","","","","","","","","","","","","","","","","","","","","","feedback_test"
"","","","","","psychophysics","69","210393","0.0-7.1-0.1-0.28","579","","j","","","","","","","","","","","","","key","j","6.94442741935493","768","428","j","true","img/C_ambi40.png","常人","prac_image_first",""
"","","","","","html-keyboard-response","70","210705","0.0-7.1-0.1-1.28","null","<span style='color:GreenYellow; font-size: 70px;'>正确! </span>","null","","","","","","","","","","","","","","","","","","","","","","","feedback_test"
"","","","","","psychophysics","71","212433","0.0-7.1-0.1-0.29","576","","f","","","","","","","","","","","","","key","f","6.944802419354904","768","428","f","true","img/S_ambi40.png","常人","prac_image_first",""
"","","","","","html-keyboard-response","72","212748","0.0-7.1-0.1-1.29","null","<span style='color:GreenYellow; font-size: 70px;'>正确! </span>","null","","","","","","","","","","","","","","","","","","","","","","","feedback_test"
"","","","","","psychophysics","73","214560","0.0-7.1-0.1-0.30","656","","j","","","","","","","","","","","","","key","j","6.971231660231656","768","428","j","true","img/T_ambi40.png","好人","prac_image_first",""
"","","","","","html-keyboard-response","74","214868","0.0-7.1-0.1-1.30","null","<span style='color:GreenYellow; font-size: 70px;'>正确! </span>","null","","","","","","","","","","","","","","","","","","","","","","","feedback_test"
"","","","","","psychophysics","75","216646","0.0-7.1-0.1-0.31","624","","j","","","","","","","","","","","","","key","j","6.944637795275569","768","428","j","true","img/T_ambi40.png","常人","prac_image_first",""
"","","","","","html-keyboard-response","76","216955","0.0-7.1-0.1-1.31","null","<span style='color:GreenYellow; font-size: 70px;'>正确! </span>","null","","","","","","","","","","","","","","","","","","","","","","","feedback_test"
"","","","","","psychophysics","77","218699","0.0-7.1-0.1-0.32","593","","f","","","","","","","","","","","","","key","f","6.945847999999998","768","428","f","true","img/C_ambi40.png","好人","prac_image_first",""
"","","","","","html-keyboard-response","78","219012","0.0-7.1-0.1-1.32","null","<span style='color:GreenYellow; font-size: 70px;'>正确! </span>","null","","","","","","","","","","","","","","","","","","","","","","","feedback_test"
"","","","","","psychophysics","79","220954","0.0-7.1-0.1-0.33","786","","f","","","","","","","","","","","","","key","f","6.9442974910394355","768","428","f","true","img/T_ambi40.png","坏人","prac_image_first",""
"","","","","","html-keyboard-response","80","221270","0.0-7.1-0.1-1.33","null","<span style='color:GreenYellow; font-size: 70px;'>正确! </span>","null","","","","","","","","","","","","","","","","","","","","","","","feedback_test"
"","","","","","psychophysics","81","222847","0.0-7.1-0.1-0.34","422","","j","","","","","","","","","","","","","key","j","6.944787610619457","768","428","f","false","img/T_ambi40.png","坏人","prac_image_first",""
"","","","","","html-keyboard-response","82","223153","0.0-7.1-0.1-1.34","null","<span style='color:red; font-size: 70px;'>错误! </span>","null","","","","","","","","","","","","","","","","","","","","","","","feedback_test"
"","","","","","psychophysics","83","224765","0.0-7.1-0.1-0.35","460","","f","","","","","","","","","","","","","key","f","6.944860869565215","768","428","f","true","img/C_ambi40.png","好人","prac_image_first",""
"","","","","","html-keyboard-response","84","225083","0.0-7.1-0.1-1.35","null","<span style='color:GreenYellow; font-size: 70px;'>正确! </span>","null","","","","","","","","","","","","","","","","","","","","","","","feedback_test"
"","","","","","psychophysics","85","226664","0.0-7.1-0.1-0.36","427","","f","","","","","","","","","","","","","key","f","6.977352678571411","768","428","f","true","img/S_ambi40.png","常人","prac_image_first",""
"","","","","","html-keyboard-response","86","226982","0.0-7.1-0.1-1.36","null","<span style='color:GreenYellow; font-size: 70px;'>正确! </span>","null","","","","","","","","","","","","","","","","","","","","","","","feedback_test"
"","","","","","psychophysics","87","228768","0.0-7.1-0.1-0.37","635","","j","","","","","","","","","","","","","key","j","6.944476562499972","768","428","f","false","img/S_ambi40.png","常人","prac_image_first",""
"","","","","","html-keyboard-response","88","229079","0.0-7.1-0.1-1.37","null","<span style='color:red; font-size: 70px;'>错误! </span>","null","","","","","","","","","","","","","","","","","","","","","","","feedback_test"
"","","","","","psychophysics","89","230895","0.0-7.1-0.1-0.38","664","","j","","","","","","","","","","","","","key","j","6.944861538461611","768","428","j","true","img/T_ambi40.png","好人","prac_image_first",""
"","","","","","html-keyboard-response","90","231215","0.0-7.1-0.1-1.38","null","<span style='color:GreenYellow; font-size: 70px;'>正确! </span>","null","","","","","","","","","","","","","","","","","","","","","","","feedback_test"
"","","","","","psychophysics","91","232804","0.0-7.1-0.1-0.39","435","","f","","","","","","","","","","","","","key","f","6.94499118942734","768","428","f","true","img/C_ambi40.png","好人","prac_image_first",""
"","","","","","html-keyboard-response","92","233114","0.0-7.1-0.1-1.39","null","<span style='color:GreenYellow; font-size: 70px;'>正确! </span>","null","","","","","","","","","","","","","","","","","","","","","","","feedback_test"
"","","","","","psychophysics","93","234688","0.0-7.1-0.1-0.40","421","","j","","","","","","","","","","","","","key","j","6.944702222222307","768","428","f","false","img/T_ambi40.png","坏人","prac_image_first",""
"","","","","","html-keyboard-response","94","235002","0.0-7.1-0.1-1.40","null","<span style='color:red; font-size: 70px;'>错误! </span>","null","","","","","","","","","","","","","","","","","","","","","","","feedback_test"
"","","","","","psychophysics","95","236767","0.0-7.1-0.1-0.41","613","","j","","","","","","","","","","","","","key","j","6.944679841897294","768","428","j","true","img/S_ambi40.png","坏人","prac_image_first",""
"","","","","","html-keyboard-response","96","237075","0.0-7.1-0.1-1.41","null","<span style='color:GreenYellow; font-size: 70px;'>正确! </span>","null","","","","","","","","","","","","","","","","","","","","","","","feedback_test"
"","","","","","psychophysics","97","238764","0.0-7.1-0.1-0.42","534","","f","","","","","","","","","","","","","key","f","6.9454132231404095","768","428","j","false","img/C_ambi40.png","常人","prac_image_first",""
"","","","","","html-keyboard-response","98","239074","0.0-7.1-0.1-1.42","null","<span style='color:red; font-size: 70px;'>错误! </span>","null","","","","","","","","","","","","","","","","","","","","","","","feedback_test"
"","","","","","psychophysics","99","240824","0.0-7.1-0.1-0.43","594","","j","","","","","","","","","","","","","key","j","6.944713147410328","768","428","f","false","img/T_ambi40.png","坏人","prac_image_first",""
"","","","","","html-keyboard-response","100","241133","0.0-7.1-0.1-1.43","null","<span style='color:red; font-size: 70px;'>错误! </span>","null","","","","","","","","","","","","","","","","","","","","","","","feedback_test"
"","","","","","psychophysics","101","242812","0.0-7.1-0.1-0.44","526","","j","","","","","","","","","","","","","key","j","6.944787500000045","768","428","j","true","img/T_ambi40.png","常人","prac_image_first",""
"","","","","","html-keyboard-response","102","243126","0.0-7.1-0.1-1.44","null","<span style='color:GreenYellow; font-size: 70px;'>正确! </span>","null","","","","","","","","","","","","","","","","","","","","","","","feedback_test"
"","","","","","psychophysics","103","244894","0.0-7.1-0.1-0.45","615","","j","","","","","","","","","","","","","key","j","6.9442411067192955","768","428","j","true","img/C_ambi40.png","坏人","prac_image_first",""
"","","","","","html-keyboard-response","104","245211","0.0-7.1-0.1-1.45","null","<span style='color:GreenYellow; font-size: 70px;'>正确! </span>","null","","","","","","","","","","","","","","","","","","","","","","","feedback_test"
"","","","","","psychophysics","105","246835","0.0-7.1-0.1-0.46","472","","f","","","","","","","","","","","","","key","f","6.944579399141629","768","428","f","true","img/C_ambi40.png","好人","prac_image_first",""
"","","","","","html-keyboard-response","106","247142","0.0-7.1-0.1-1.46","null","<span style='color:GreenYellow; font-size: 70px;'>正确! </span>","null","","","","","","","","","","","","","","","","","","","","","","","feedback_test"
"","","","","","psychophysics","107","248809","0.0-7.1-0.1-0.47","515","","j","","","","","","","","","","","","","key","j","6.944665271966503","768","428","j","true","img/S_ambi40.png","好人","prac_image_first",""
"","","","","","html-keyboard-response","108","249120","0.0-7.1-0.1-1.47","null","<span style='color:GreenYellow; font-size: 70px;'>正确! </span>","null","","","","","","","","","","","","","","","","","","","","","","","feedback_test"
"","","","","","html-keyboard-response","109","254520","0.0-8.0","5397","<style>.context{color:white; font-size: 35px; line-height:40px}</style>                              <div><p class='context'>您正确回答了79% 的试次。</p><p class='context'>您的平均反应时为603毫秒。</p><p class='context'>恭喜您完成这一阶段的练习。按任意键进入<span style='color: yellow;'>先文字后图形条件</span>的练习。</p></div>"," ","","","","","","","","","","","","","","","","","","","","","","",""
"","","","","","psychophysics","110","256443","0.0-9.0-0.0-0.0","768","","f","","","","","","","","","","","","","key","f","6.944264492753617","768","428","j","false","img/S_ambi40.png","坏人","prac_word_first",""
"","","","","","html-keyboard-response","111","256761","0.0-9.0-0.0-1.0","null","<span style='color:red; font-size: 70px;'>错误! </span>","null","","","","","","","","","","","","","","","","","","","","","","","feedback_test"
"","","","","","psychophysics","112","258485","0.0-9.0-0.0-0.1","572","","f","","","","","","","","","","","","","key","f","6.944510121457467","768","428","f","true","img/C_ambi40.png","好人","prac_word_first",""
"","","","","","html-keyboard-response","113","258800","0.0-9.0-0.0-1.1","null","<span style='color:GreenYellow; font-size: 70px;'>正确! </span>","null","","","","","","","","","","","","","","","","","","","","","","","feedback_test"
"","","","","","psychophysics","114","260615","0.0-9.0-0.0-0.2","663","","f","","","","","","","","","","","","","key","f","6.944642307692377","768","428","f","true","img/T_ambi40.png","坏人","prac_word_first",""
"","","","","","html-keyboard-response","115","260922","0.0-9.0-0.0-1.2","null","<span style='color:GreenYellow; font-size: 70px;'>正确! </span>","null","","","","","","","","","","","","","","","","","","","","","","","feedback_test"
"","","","","","psychophysics","116","262535","0.0-9.0-0.0-0.3","457","","f","","","","","","","","","","","","","key","f","6.944506493506543","768","428","j","false","img/C_ambi40.png","常人","prac_word_first",""
"","","","","","html-keyboard-response","117","262855","0.0-9.0-0.0-1.3","null","<span style='color:red; font-size: 70px;'>错误! </span>","null","","","","","","","","","","","","","","","","","","","","","","","feedback_test"
"","","","","","psychophysics","118","264582","0.0-9.0-0.0-0.4","574","","f","","","","","","","","","","","","","key","f","6.944388663967711","768","428","f","true","img/C_ambi40.png","好人","prac_word_first",""
"","","","","","html-keyboard-response","119","264897","0.0-9.0-0.0-1.4","null","<span style='color:GreenYellow; font-size: 70px;'>正确! </span>","null","","","","","","","","","","","","","","","","","","","","","","","feedback_test"
"","","","","","psychophysics","120","266532","0.0-9.0-0.0-0.5","483","","f","","","","","","","","","","","","","key","f","6.944628205128227","768","428","j","false","img/C_ambi40.png","坏人","prac_word_first",""
"","","","","","html-keyboard-response","121","266848","0.0-9.0-0.0-1.5","null","<span style='color:red; font-size: 70px;'>错误! </span>","null","","","","","","","","","","","","","","","","","","","","","","","feedback_test"
"","","","","","psychophysics","122","268542","0.0-9.0-0.0-0.6","541","","j","","","","","","","","","","","","","key","j","6.944243801653064","768","428","j","true","img/S_ambi40.png","好人","prac_word_first",""
"","","","","","html-keyboard-response","123","268859","0.0-9.0-0.0-1.6","null","<span style='color:GreenYellow; font-size: 70px;'>正确! </span>","null","","","","","","","","","","","","","","","","","","","","","","","feedback_test"
"","","","","","psychophysics","124","270722","0.0-9.0-0.0-0.7","707","","j","","","","","","","","","","","","","key","j","6.944749063670492","768","428","f","false","img/S_ambi40.png","常人","prac_word_first",""
"","","","","","html-keyboard-response","125","271031","0.0-9.0-0.0-1.7","null","<span style='color:red; font-size: 70px;'>错误! </span>","null","","","","","","","","","","","","","","","","","","","","","","","feedback_test"
"","","","","","psychophysics","126","272876","0.0-9.0-0.0-0.8","694","","f","","","","","","","","","","","","","key","f","6.944499999999993","768","428","f","true","img/S_ambi40.png","常人","prac_word_first",""
"","","","","","html-keyboard-response","127","273180","0.0-9.0-0.0-1.8","null","<span style='color:GreenYellow; font-size: 70px;'>正确! </span>","null","","","","","","","","","","","","","","","","","","","","","","","feedback_test"
"","","","","","psychophysics","128","274871","0.0-9.0-0.0-0.9","537","","j","","","","","","","","","","","","","key","j","6.942302904564199","768","428","j","true","img/T_ambi40.png","常人","prac_word_first",""
"","","","","","html-keyboard-response","129","275185","0.0-9.0-0.0-1.9","null","<span style='color:GreenYellow; font-size: 70px;'>正确! </span>","null","","","","","","","","","","","","","","","","","","","","","","","feedback_test"
"","","","","","psychophysics","130","277118","0.0-9.0-0.0-0.10","780","","j","","","","","","","","","","","","","key","j","6.944335740072223","768","428","f","false","img/T_ambi40.png","坏人","prac_word_first",""
"","","","","","html-keyboard-response","131","277431","0.0-9.0-0.0-1.10","null","<span style='color:red; font-size: 70px;'>错误! </span>","null","","","","","","","","","","","","","","","","","","","","","","","feedback_test"
"","","","","","psychophysics","132","279252","0.0-9.0-0.0-0.11","667","","j","","","","","","","","","","","","","key","j","6.944574712643621","768","428","j","true","img/T_ambi40.png","好人","prac_word_first",""
"","","","","","html-keyboard-response","133","279556","0.0-9.0-0.0-1.11","null","<span style='color:GreenYellow; font-size: 70px;'>正确! </span>","null","","","","","","","","","","","","","","","","","","","","","","","feedback_test"
"","","","","","psychophysics","134","281173","0.0-9.0-0.0-0.12","463","","f","","","","","","","","","","","","","key","f","6.944670995670921","768","428","f","true","img/S_ambi40.png","常人","prac_word_first",""
"","","","","","html-keyboard-response","135","281494","0.0-9.0-0.0-1.12","null","<span style='color:GreenYellow; font-size: 70px;'>正确! </span>","null","","","","","","","","","","","","","","","","","","","","","","","feedback_test"
"","","","","","psychophysics","136","283282","0.0-9.0-0.0-0.13","635","","j","","","","","","","","","","","","","key","j","6.944636718749962","768","428","j","true","img/S_ambi40.png","坏人","prac_word_first",""
"","","","","","html-keyboard-response","137","283590","0.0-9.0-0.0-1.13","null","<span style='color:GreenYellow; font-size: 70px;'>正确! </span>","null","","","","","","","","","","","","","","","","","","","","","","","feedback_test"
"","","","","","psychophysics","138","285477","0.0-9.0-0.0-0.14","732","","f","","","","","","","","","","","","","key","f","6.944333333333446","768","428","f","true","img/T_ambi40.png","坏人","prac_word_first",""
"","","","","","html-keyboard-response","139","285791","0.0-9.0-0.0-1.14","null","<span style='color:GreenYellow; font-size: 70px;'>正确! </span>","null","","","","","","","","","","","","","","","","","","","","","","","feedback_test"
"","","","","","psychophysics","140","287524","0.0-9.0-0.0-0.15","579","","f","","","","","","","","","","","","","key","f","7.029563265306191","768","428","f","true","img/S_ambi40.png","常人","prac_word_first",""
"","","","","","html-keyboard-response","141","287842","0.0-9.0-0.0-1.15","null","<span style='color:GreenYellow; font-size: 70px;'>正确! </span>","null","","","","","","","","","","","","","","","","","","","","","","","feedback_test"
"","","","","","psychophysics","142","289687","0.0-9.0-0.0-0.16","693","","j","","","","","","","","","","","","","key","j","6.9453636363636395","768","428","j","true","img/C_ambi40.png","坏人","prac_word_first",""
"","","","","","html-keyboard-response","143","290004","0.0-9.0-0.0-1.16","null","<span style='color:GreenYellow; font-size: 70px;'>正确! </span>","null","","","","","","","","","","","","","","","","","","","","","","","feedback_test"
"","","","","","psychophysics","144","291809","0.0-9.0-0.0-0.17","654","","j","","","","","","","","","","","","","key","j","6.94444573643417","768","428","j","true","img/C_ambi40.png","常人","prac_word_first",""
"","","","","","html-keyboard-response","145","292118","0.0-9.0-0.0-1.17","null","<span style='color:GreenYellow; font-size: 70px;'>正确! </span>","null","","","","","","","","","","","","","","","","","","","","","","","feedback_test"
"","","","","","psychophysics","146","293950","0.0-9.0-0.0-0.18","679","","j","","","","","","","","","","","","","key","j","6.944762452107219","768","428","j","true","img/T_ambi40.png","常人","prac_word_first",""
"","","","","","html-keyboard-response","147","294259","0.0-9.0-0.0-1.18","null","<span style='color:GreenYellow; font-size: 70px;'>正确! </span>","null","","","","","","","","","","","","","","","","","","","","","","","feedback_test"
"","","","","","psychophysics","148","296081","0.0-9.0-0.0-0.19","671","","j","","","","","","","","","","","","","key","j","6.944563218390647","768","428","j","true","img/S_ambi40.png","好人","prac_word_first",""
"","","","","","html-keyboard-response","149","296393","0.0-9.0-0.0-1.19","null","<span style='color:GreenYellow; font-size: 70px;'>正确! </span>","null","","","","","","","","","","","","","","","","","","","","","","","feedback_test"
"","","","","","psychophysics","150","297991","0.0-9.0-0.0-0.20","447","","f","","","","","","","","","","","","","key","f","6.944550218340467","768","428","f","true","img/C_ambi40.png","好人","prac_word_first",""
"","","","","","html-keyboard-response","151","298309","0.0-9.0-0.0-1.20","null","<span style='color:GreenYellow; font-size: 70px;'>正确! </span>","null","","","","","","","","","","","","","","","","","","","","","","","feedback_test"
"","","","","","psychophysics","152","299942","0.0-9.0-0.0-0.21","482","","f","","","","","","","","","","","","","key","f","6.944440170939968","768","428","f","true","img/C_ambi40.png","好人","prac_word_first",""
"","","","","","html-keyboard-response","153","300257","0.0-9.0-0.0-1.21","null","<span style='color:GreenYellow; font-size: 70px;'>正确! </span>","null","","","","","","","","","","","","","","","","","","","","","","","feedback_test"
"","","","","","psychophysics","154","302006","0.0-9.0-0.0-0.22","596","","f","","","","","","","","","","","","","key","f","6.9445279999999325","768","428","f","true","img/T_ambi40.png","坏人","prac_word_first",""
"","","","","","html-keyboard-response","155","302322","0.0-9.0-0.0-1.22","null","<span style='color:GreenYellow; font-size: 70px;'>正确! </span>","null","","","","","","","","","","","","","","","","","","","","","","","feedback_test"
"","","","","","psychophysics","156","304071","0.0-9.0-0.0-0.23","598","","j","","","","","","","","","","","","","key","j","6.9446215139441305","768","428","j","true","img/T_ambi40.png","好人","prac_word_first",""
"","","","","","html-keyboard-response","157","304391","0.0-9.0-0.0-1.23","null","<span style='color:GreenYellow; font-size: 70px;'>正确! </span>","null","","","","","","","","","","","","","","","","","","","","","","","feedback_test"
"","","","","","html-keyboard-response","158","307699","0.0-10.0","3306","<style>.context{color:white; font-size: 35px; line-height:40px}</style>                              <div><p class='context'>您正确回答了79% 的试次。</p><p class='context'>您的平均反应时为604毫秒。</p><p class='context'>恭喜您完成练习。按任意键进入<span style='color: yellow;'>图形和文字同时呈现条件</span>的练习。</p></div>"," ","","","","","","","","","","","","","","","","","","","","","","",""
"","","","","","psychophysics","159","309639","0.0-11.0-0.0-0.0","935","","j","","","","","","","","","","","","","key","j","6.944571942445887","768","428","j","true","img/T_ambi40.png","常人","prac_simultaneous",""
"","","","","","html-keyboard-response","160","309952","0.0-11.0-0.0-1.0","null","<span style='color:GreenYellow; font-size: 70px;'>正确! </span>","null","","","","","","","","","","","","","","","","","","","","","","","feedback_test"
"","","","","","psychophysics","161","311705","0.0-11.0-0.0-0.1","753","","f","","","","","","","","","","","","","key","f","6.944673306772956","768","428","f","true","img/T_ambi40.png","坏人","prac_simultaneous",""
"","","","","","html-keyboard-response","162","312022","0.0-11.0-0.0-1.1","null","<span style='color:GreenYellow; font-size: 70px;'>正确! </span>","null","","","","","","","","","","","","","","","","","","","","","","","feedback_test"
"","","","","","psychophysics","163","313715","0.0-11.0-0.0-0.2","691","","j","","","","","","","","","","","","","key","j","6.9446776859505075","768","428","j","true","img/T_ambi40.png","好人","prac_simultaneous",""
"","","","","","html-keyboard-response","164","314017","0.0-11.0-0.0-1.2","null","<span style='color:GreenYellow; font-size: 70px;'>正确! </span>","null","","","","","","","","","","","","","","","","","","","","","","","feedback_test"
"","","","","","psychophysics","165","315647","0.0-11.0-0.0-0.3","626","","j","","","","","","","","","","","","","key","j","6.944339055794066","768","428","j","true","img/C_ambi40.png","坏人","prac_simultaneous",""
"","","","","","html-keyboard-response","166","315962","0.0-11.0-0.0-1.3","null","<span style='color:GreenYellow; font-size: 70px;'>正确! </span>","null","","","","","","","","","","","","","","","","","","","","","","","feedback_test"
"","","","","","psychophysics","167","317571","0.0-11.0-0.0-0.4","605","","f","","","","","","","","","","","","","key","f","6.944523809523799","768","428","f","true","img/S_ambi40.png","常人","prac_simultaneous",""
"","","","","","html-keyboard-response","168","317876","0.0-11.0-0.0-1.4","null","<span style='color:GreenYellow; font-size: 70px;'>正确! </span>","null","","","","","","","","","","","","","","","","","","","","","","","feedback_test"
"","","","","","psychophysics","169","319792","0.0-11.0-0.0-0.5","915","","f","","","","","","","","","","","","","key","f","6.944478102189822","768","428","f","true","img/T_ambi40.png","坏人","prac_simultaneous",""
"","","","","","html-keyboard-response","170","320103","0.0-11.0-0.0-1.5","null","<span style='color:GreenYellow; font-size: 70px;'>正确! </span>","null","","","","","","","","","","","","","","","","","","","","","","","feedback_test"
"","","","","","psychophysics","171","321817","0.0-11.0-0.0-0.6","713","","j","","","","","","","","","","","","","key","j","6.943995918367267","768","428","j","true","img/C_ambi40.png","常人","prac_simultaneous",""
"","","","","","html-keyboard-response","172","322129","0.0-11.0-0.0-1.6","null","<span style='color:GreenYellow; font-size: 70px;'>正确! </span>","null","","","","","","","","","","","","","","","","","","","","","","","feedback_test"
"","","","","","psychophysics","173","323803","0.0-11.0-0.0-0.7","671","","j","","","","","","","","","","","","","key","j","6.944087500000023","768","428","j","true","img/S_ambi40.png","好人","prac_simultaneous",""
"","","","","","html-keyboard-response","174","324113","0.0-11.0-0.0-1.7","null","<span style='color:GreenYellow; font-size: 70px;'>正确! </span>","null","","","","","","","","","","","","","","","","","","","","","","","feedback_test"
"","","","","","psychophysics","175","325674","0.0-11.0-0.0-0.8","556","","f","","","","","","","","","","","","","key","f","6.944354260089753","768","428","f","true","img/S_ambi40.png","常人","prac_simultaneous",""
"","","","","","html-keyboard-response","176","325979","0.0-11.0-0.0-1.8","null","<span style='color:GreenYellow; font-size: 70px;'>正确! </span>","null","","","","","","","","","","","","","","","","","","","","","","","feedback_test"
"","","","","","psychophysics","177","327699","0.0-11.0-0.0-0.9","718","","j","","","","","","","","","","","","","key","j","6.944272357723449","768","428","j","true","img/S_ambi40.png","坏人","prac_simultaneous",""
"","","","","","html-keyboard-response","178","328007","0.0-11.0-0.0-1.9","null","<span style='color:GreenYellow; font-size: 70px;'>正确! </span>","null","","","","","","","","","","","","","","","","","","","","","","","feedback_test"
"","","","","","psychophysics","179","329613","0.0-11.0-0.0-0.10","605","","f","","","","","","","","","","","","","key","f","6.944556521738971","768","428","f","true","img/C_ambi40.png","好人","prac_simultaneous",""
"","","","","","html-keyboard-response","180","329921","0.0-11.0-0.0-1.10","null","<span style='color:GreenYellow; font-size: 70px;'>正确! </span>","null","","","","","","","","","","","","","","","","","","","","","","","feedback_test"
"","","","","","psychophysics","181","331693","0.0-11.0-0.0-0.11","770","","f","","","","","","","","","","","","","key","f","6.944358267716415","768","428","f","true","img/C_ambi40.png","好人","prac_simultaneous",""
"","","","","","html-keyboard-response","182","332008","0.0-11.0-0.0-1.11","null","<span style='color:GreenYellow; font-size: 70px;'>正确! </span>","null","","","","","","","","","","","","","","","","","","","","","","","feedback_test"
"","","","","","psychophysics","183","333901","0.0-11.0-0.0-0.12","886","","j","","","","","","","","","","","","","key","j","6.9447601476015794","768","428","j","true","img/S_ambi40.png","坏人","prac_simultaneous",""
"","","","","","html-keyboard-response","184","334209","0.0-11.0-0.0-1.12","null","<span style='color:GreenYellow; font-size: 70px;'>正确! </span>","null","","","","","","","","","","","","","","","","","","","","","","","feedback_test"
"","","","","","psychophysics","185","335679","0.0-11.0-0.0-0.13","463","","f","","","","","","","","","","","","","key","f","6.945971428571613","768","428","f","true","img/S_ambi40.png","常人","prac_simultaneous",""
"","","","","","html-keyboard-response","186","335995","0.0-11.0-0.0-1.13","null","<span style='color:GreenYellow; font-size: 70px;'>正确! </span>","null","","","","","","","","","","","","","","","","","","","","","","","feedback_test"
"","","","","","psychophysics","187","337725","0.0-11.0-0.0-0.14","725","","j","","","","","","","","","","","","","key","j","6.944475806451538","768","428","j","true","img/C_ambi40.png","坏人","prac_simultaneous",""
"","","","","","html-keyboard-response","188","338037","0.0-11.0-0.0-1.14","null","<span style='color:GreenYellow; font-size: 70px;'>正确! </span>","null","","","","","","","","","","","","","","","","","","","","","","","feedback_test"
"","","","","","psychophysics","189","339641","0.0-11.0-0.0-0.15","601","","f","","","","","","","","","","","","","key","f","6.9443956521737045","768","428","f","true","img/C_ambi40.png","好人","prac_simultaneous",""
"","","","","","html-keyboard-response","190","339953","0.0-11.0-0.0-1.15","null","<span style='color:GreenYellow; font-size: 70px;'>正确! </span>","null","","","","","","","","","","","","","","","","","","","","","","","feedback_test"
"","","","","","psychophysics","191","341569","0.0-11.0-0.0-0.16","611","","j","","","","","","","","","","","","","key","j","6.944645021644973","768","428","j","true","img/C_ambi40.png","常人","prac_simultaneous",""
"","","","","","html-keyboard-response","192","341874","0.0-11.0-0.0-1.16","null","<span style='color:GreenYellow; font-size: 70px;'>正确! </span>","null","","","","","","","","","","","","","","","","","","","","","","","feedback_test"
"","","","","","psychophysics","193","343475","0.0-11.0-0.0-0.17","600","","f","","","","","","","","","","","","","key","f","6.9448565217393","768","428","f","true","img/S_ambi40.png","常人","prac_simultaneous",""
"","","","","","html-keyboard-response","194","343778","0.0-11.0-0.0-1.17","null","<span style='color:GreenYellow; font-size: 70px;'>正确! </span>","null","","","","","","","","","","","","","","","","","","","","","","","feedback_test"
"","","","","","psychophysics","195","345713","0.0-11.0-0.0-0.18","934","","f","","","","","","","","","","","","","key","f","6.969735507246367","768","428","j","false","img/T_ambi40.png","好人","prac_simultaneous",""
"","","","","","html-keyboard-response","196","346017","0.0-11.0-0.0-1.18","null","<span style='color:red; font-size: 70px;'>错误! </span>","null","","","","","","","","","","","","","","","","","","","","","","","feedback_test"
"","","","","","psychophysics","197","347663","0.0-11.0-0.0-0.19","642","","j","","","","","","","","","","","","","key","j","6.9445466101694935","768","428","j","true","img/T_ambi40.png","常人","prac_simultaneous",""
"","","","","","html-keyboard-response","198","347982","0.0-11.0-0.0-1.19","null","<span style='color:GreenYellow; font-size: 70px;'>正确! </span>","null","","","","","","","","","","","","","","","","","","","","","","","feedback_test"
"","","","","","psychophysics","199","349766","0.0-11.0-0.0-0.20","781","","j","","","","","","","","","","","","","key","j","6.944718749999993","768","428","j","true","img/S_ambi40.png","好人","prac_simultaneous",""
"","","","","","html-keyboard-response","200","350082","0.0-11.0-0.0-1.20","null","<span style='color:GreenYellow; font-size: 70px;'>正确! </span>","null","","","","","","","","","","","","","","","","","","","","","","","feedback_test"
"","","","","","psychophysics","201","351622","0.0-11.0-0.0-0.21","538","","f","","","","","","","","","","","","","key","f","6.939429223744495","768","428","f","true","img/C_ambi40.png","好人","prac_simultaneous",""
"","","","","","html-keyboard-response","202","351936","0.0-11.0-0.0-1.21","null","<span style='color:GreenYellow; font-size: 70px;'>正确! </span>","null","","","","","","","","","","","","","","","","","","","","","","","feedback_test"
"","","","","","psychophysics","203","353709","0.0-11.0-0.0-0.22","770","","f","","","","","","","","","","","","","key","f","6.944170634920565","768","428","f","true","img/T_ambi40.png","坏人","prac_simultaneous",""
"","","","","","html-keyboard-response","204","354028","0.0-11.0-0.0-1.22","null","<span style='color:GreenYellow; font-size: 70px;'>正确! </span>","null","","","","","","","","","","","","","","","","","","","","","","","feedback_test"
"","","","","","psychophysics","205","355655","0.0-11.0-0.0-0.23","626","","j","","","","","","","","","","","","","key","j","6.944871244635063","768","428","f","false","img/T_ambi40.png","坏人","prac_simultaneous",""
"","","","","","html-keyboard-response","206","355970","0.0-11.0-0.0-1.23","null","<span style='color:red; font-size: 70px;'>错误! </span>","null","","","","","","","","","","","","","","","","","","","","","","","feedback_test"
"","","","","","html-keyboard-response","207","372271","0.0-12.0","16298","<style>.context{color:white; font-size: 35px; line-height:40px}</style>                              <div><p class='context'>您正确回答了92% 的试次。</p><p class='context'>您的平均反应时为690毫秒。</p><p class='context'>恭喜您完成练习。按任意键进入正式实验。</p><p class='footer' style='font-size: 35px; line-height:40px;'>请在进入正式实验实验之前将您的<span style='color: lightgreen;'>食指</span>放在电脑键盘的相应键位上进行按键。</p>"," ","","","","","","","","","","","","","","","","","","","","","","",""
"","","","","","html-keyboard-response","208","375672","0.0-13.0-0.0-0.0","3397","
      <p>请您将手指放在按键上，准备进入呈现顺序为<span style='color: yellow;'>先图形后文字条件</span>的正式匹配任务</p>
      <p> <div style = ""color: green""><按任意键进入下一阶段的匹配任务></div></p>
      "," ","","","","","","","","","","","","","","","","","","","","","","",""
"","","","","","psychophysics","209","377440","0.0-13.0-0.0-1.0-0.0-0.0","614","","j","","","","","","","","","","","","","key","j","6.944507874015858","768","428","j","true","img/C_ambi40.png","常人","image_first",""
"","","","","","html-keyboard-response","210","377748","0.0-13.0-0.0-1.0-0.0-1.0","null","<span style='color:GreenYellow; font-size: 70px;'>正确! </span>","null","","","","","","","","","","","","","","","","","","","","","","","feedback_test"
"","","","","","psychophysics","211","379430","0.0-13.0-0.0-1.0-0.0-0.1","526","","f","","","","","","","","","","","","","key","f","6.944871369294757","768","428","f","true","img/S_ambi40.png","常人","image_first",""
"","","","","","html-keyboard-response","212","379748","0.0-13.0-0.0-1.0-0.0-1.1","null","<span style='color:GreenYellow; font-size: 70px;'>正确! </span>","null","","","","","","","","","","","","","","","","","","","","","","","feedback_test"
"","","","","","psychophysics","213","381546","0.0-13.0-0.0-1.0-0.0-0.2","643","","f","","","","","","","","","","","","","key","f","6.9443953488371335","768","428","j","false","img/C_ambi40.png","坏人","image_first",""
"","","","","","html-keyboard-response","214","381855","0.0-13.0-0.0-1.0-0.0-1.2","null","<span style='color:red; font-size: 70px;'>错误! </span>","null","","","","","","","","","","","","","","","","","","","","","","","feedback_test"
"","","","","","psychophysics","215","383448","0.0-13.0-0.0-1.0-0.0-0.3","440","","f","","","","","","","","","","","","","key","f","6.944877192982331","768","428","f","true","img/T_ambi40.png","坏人","image_first",""
"","","","","","html-keyboard-response","216","383755","0.0-13.0-0.0-1.0-0.0-1.3","null","<span style='color:GreenYellow; font-size: 70px;'>正确! </span>","null","","","","","","","","","","","","","","","","","","","","","","","feedback_test"
"","","","","","psychophysics","217","385456","0.0-13.0-0.0-1.0-0.0-0.4","546","","f","","","","","","","","","","","","","key","f","6.944479508196876","768","428","f","true","img/T_ambi40.png","坏人","image_first",""
"","","","","","html-keyboard-response","218","385767","0.0-13.0-0.0-1.0-0.0-1.4","null","<span style='color:GreenYellow; font-size: 70px;'>正确! </span>","null","","","","","","","","","","","","","","","","","","","","","","","feedback_test"
"","","","","","psychophysics","219","387416","0.0-13.0-0.0-1.0-0.0-0.5","498","","j","","","","","","","","","","","","","key","j","6.9444703389828835","768","428","j","true","img/T_ambi40.png","好人","image_first",""
"","","","","","html-keyboard-response","220","387732","0.0-13.0-0.0-1.0-0.0-1.5","null","<span style='color:GreenYellow; font-size: 70px;'>正确! </span>","null","","","","","","","","","","","","","","","","","","","","","","","feedback_test"
"","","","","","psychophysics","221","389700","0.0-13.0-0.0-1.0-0.0-0.6","815","","f","","","","","","","","","","","","","key","f","6.9693594306050315","768","428","j","false","img/S_ambi40.png","好人","image_first",""
"","","","","","html-keyboard-response","222","390016","0.0-13.0-0.0-1.0-0.0-1.6","null","<span style='color:red; font-size: 70px;'>错误! </span>","null","","","","","","","","","","","","","","","","","","","","","","","feedback_test"
"","","","","","psychophysics","223","391658","0.0-13.0-0.0-1.0-0.0-0.7","490","","f","","","","","","","","","","","","","key","f","6.9460553191488295","768","428","f","true","img/C_ambi40.png","好人","image_first",""
"","","","","","html-keyboard-response","224","391968","0.0-13.0-0.0-1.0-0.0-1.7","null","<span style='color:GreenYellow; font-size: 70px;'>正确! </span>","null","","","","","","","","","","","","","","","","","","","","","","","feedback_test"
"","","","","","psychophysics","225","393935","0.0-13.0-0.0-1.0-0.0-0.8","816","","f","","","","","","","","","","","","","key","f","6.944478723404232","768","428","f","true","img/S_ambi40.png","常人","image_first",""
"","","","","","html-keyboard-response","226","394256","0.0-13.0-0.0-1.0-0.0-1.8","null","<span style='color:GreenYellow; font-size: 70px;'>正确! </span>","null","","","","","","","","","","","","","","","","","","","","","","","feedback_test"
"","","","","","psychophysics","227","396151","0.0-13.0-0.0-1.0-0.0-0.9","741","","j","","","","","","","","","","","","","key","j","6.998104477612043","768","428","j","true","img/S_ambi40.png","坏人","image_first",""
"","","","","","html-keyboard-response","228","396459","0.0-13.0-0.0-1.0-0.0-1.9","null","<span style='color:GreenYellow; font-size: 70px;'>正确! </span>","null","","","","","","","","","","","","","","","","","","","","","","","feedback_test"
"","","","","","psychophysics","229","398047","0.0-13.0-0.0-1.0-0.0-0.10","435","","f","","","","","","","","","","","","","key","f","6.944810572687263","768","428","f","true","img/C_ambi40.png","好人","image_first",""
"","","","","","html-keyboard-response","230","398364","0.0-13.0-0.0-1.0-0.0-1.10","null","<span style='color:GreenYellow; font-size: 70px;'>正确! </span>","null","","","","","","","","","","","","","","","","","","","","","","","feedback_test"
"","","","","","psychophysics","231","400096","0.0-13.0-0.0-1.0-0.0-0.11","581","","j","","","","","","","","","","","","","key","j","6.944516129032221","768","428","j","true","img/T_ambi40.png","常人","image_first",""
"","","","","","html-keyboard-response","232","400410","0.0-13.0-0.0-1.0-0.0-1.11","null","<span style='color:GreenYellow; font-size: 70px;'>正确! </span>","null","","","","","","","","","","","","","","","","","","","","","","","feedback_test"
"","","","","","psychophysics","233","402260","0.0-13.0-0.0-1.0-0.0-0.12","696","","f","","","","","","","","","","","","","key","f","6.9445245283018835","768","428","f","true","img/S_ambi40.png","常人","image_first",""
"","","","","","html-keyboard-response","234","402573","0.0-13.0-0.0-1.0-0.0-1.12","null","<span style='color:GreenYellow; font-size: 70px;'>正确! </span>","null","","","","","","","","","","","","","","","","","","","","","","","feedback_test"
"","","","","","psychophysics","235","404158","0.0-13.0-0.0-1.0-0.0-0.13","429","","f","","","","","","","","","","","","","key","f","6.944559471365803","768","428","f","true","img/C_ambi40.png","好人","image_first",""
"","","","","","html-keyboard-response","236","404478","0.0-13.0-0.0-1.0-0.0-1.13","null","<span style='color:GreenYellow; font-size: 70px;'>正确! </span>","null","","","","","","","","","","","","","","","","","","","","","","","feedback_test"
"","","","","","psychophysics","237","405998","0.0-13.0-0.0-1.0-0.0-0.14","366","","f","","","","","","","","","","","","","key","f","6.945247706422078","768","428","f","true","img/C_ambi40.png","好人","image_first",""
"","","","","","html-keyboard-response","238","406316","0.0-13.0-0.0-1.0-0.0-1.14","null","<span style='color:GreenYellow; font-size: 70px;'>正确! </span>","null","","","","","","","","","","","","","","","","","","","","","","","feedback_test"
"","","","","","psychophysics","239","408047","0.0-13.0-0.0-1.0-0.0-0.15","579","","j","","","","","","","","","","","","","key","j","6.972526315789385","768","428","j","true","img/S_ambi40.png","好人","image_first",""
"","","","","","html-keyboard-response","240","408354","0.0-13.0-0.0-1.0-0.0-1.15","null","<span style='color:GreenYellow; font-size: 70px;'>正确! </span>","null","","","","","","","","","","","","","","","","","","","","","","","feedback_test"
"","","","","","psychophysics","241","409949","0.0-13.0-0.0-1.0-0.0-0.16","442","","f","","","","","","","","","","","","","key","f","6.938295154184839","768","428","f","true","img/T_ambi40.png","坏人","image_first",""
"","","","","","html-keyboard-response","242","410270","0.0-13.0-0.0-1.0-0.0-1.16","null","<span style='color:GreenYellow; font-size: 70px;'>正确! </span>","null","","","","","","","","","","","","","","","","","","","","","","","feedback_test"
"","","","","","psychophysics","243","411910","0.0-13.0-0.0-1.0-0.0-0.17","485","","j","","","","","","","","","","","","","key","j","6.940557939914013","768","428","j","true","img/T_ambi40.png","好人","image_first",""
"","","","","","html-keyboard-response","244","412233","0.0-13.0-0.0-1.0-0.0-1.17","null","<span style='color:GreenYellow; font-size: 70px;'>正确! </span>","null","","","","","","","","","","","","","","","","","","","","","","","feedback_test"
"","","","","","psychophysics","245","413818","0.0-13.0-0.0-1.0-0.0-0.18","435","","f","","","","","","","","","","","","","key","f","6.9449911894272125","768","428","f","true","img/S_ambi40.png","常人","image_first",""
"","","","","","html-keyboard-response","246","414123","0.0-13.0-0.0-1.0-0.0-1.18","null","<span style='color:GreenYellow; font-size: 70px;'>正确! </span>","null","","","","","","","","","","","","","","","","","","","","","","","feedback_test"
"","","","","","psychophysics","247","415741","0.0-13.0-0.0-1.0-0.0-0.19","462","","j","","","","","","","","","","","","","key","j","6.9439999999998046","768","428","j","true","img/T_ambi40.png","常人","image_first",""
"","","","","","html-keyboard-response","248","416057","0.0-13.0-0.0-1.0-0.0-1.19","null","<span style='color:GreenYellow; font-size: 70px;'>正确! </span>","null","","","","","","","","","","","","","","","","","","","","","","","feedback_test"
"","","","","","psychophysics","249","417897","0.0-13.0-0.0-1.0-0.0-0.20","689","","j","","","","","","","","","","","","","key","j","6.944624999999977","768","428","j","true","img/C_ambi40.png","常人","image_first",""
"","","","","","html-keyboard-response","250","418214","0.0-13.0-0.0-1.0-0.0-1.20","null","<span style='color:GreenYellow; font-size: 70px;'>正确! </span>","null","","","","","","","","","","","","","","","","","","","","","","","feedback_test"
"","","","","","psychophysics","251","420009","0.0-13.0-0.0-1.0-0.0-0.21","641","","f","","","","","","","","","","","","","key","f","6.945066406249907","768","428","f","true","img/T_ambi40.png","坏人","image_first",""
"","","","","","html-keyboard-response","252","420314","0.0-13.0-0.0-1.0-0.0-1.21","null","<span style='color:GreenYellow; font-size: 70px;'>正确! </span>","null","","","","","","","","","","","","","","","","","","","","","","","feedback_test"
"","","","","","psychophysics","253","421899","0.0-13.0-0.0-1.0-0.0-0.22","433","","j","","","","","","","","","","","","","key","j","6.94422907488998","768","428","j","true","img/S_ambi40.png","坏人","image_first",""
"","","","","","html-keyboard-response","254","422201","0.0-13.0-0.0-1.0-0.0-1.22","null","<span style='color:GreenYellow; font-size: 70px;'>正确! </span>","null","","","","","","","","","","","","","","","","","","","","","","","feedback_test"
"","","","","","psychophysics","255","423733","0.0-13.0-0.0-1.0-0.0-0.23","381","","f","","","","","","","","","","","","","key","f","6.944885844748827","768","428","j","false","img/C_ambi40.png","坏人","image_first",""
"","","","","","html-keyboard-response","256","424045","0.0-13.0-0.0-1.0-0.0-1.23","null","<span style='color:red; font-size: 70px;'>错误! </span>","null","","","","","","","","","","","","","","","","","","","","","","","feedback_test"
"","","","","","psychophysics","257","425777","0.0-13.0-0.0-1.0-0.0-0.24","575","","j","","","","","","","","","","","","","key","j","6.944725806451677","768","428","j","true","img/C_ambi40.png","坏人","image_first",""
"","","","","","html-keyboard-response","258","426091","0.0-13.0-0.0-1.0-0.0-1.24","null","<span style='color:GreenYellow; font-size: 70px;'>正确! </span>","null","","","","","","","","","","","","","","","","","","","","","","","feedback_test"
"","","","","","psychophysics","259","427643","0.0-13.0-0.0-1.0-0.0-0.25","400","","f","","","","","","","","","","","","","key","f","6.944959459459537","768","428","f","true","img/C_ambi40.png","好人","image_first",""
"","","","","","html-keyboard-response","260","427958","0.0-13.0-0.0-1.0-0.0-1.25","null","<span style='color:GreenYellow; font-size: 70px;'>正确! </span>","null","","","","","","","","","","","","","","","","","","","","","","","feedback_test"
"","","","","","psychophysics","261","429644","0.0-13.0-0.0-1.0-0.0-0.26","533","","j","","","","","","","","","","","","","key","j","6.944622406638923","768","428","j","true","img/T_ambi40.png","好人","image_first",""
"","","","","","html-keyboard-response","262","429964","0.0-13.0-0.0-1.0-0.0-1.26","null","<span style='color:GreenYellow; font-size: 70px;'>正确! </span>","null","","","","","","","","","","","","","","","","","","","","","","","feedback_test"
"","","","","","psychophysics","263","431696","0.0-13.0-0.0-1.0-0.0-0.27","578","","f","","","","","","","","","","","","","key","f","6.972740890688464","768","428","f","true","img/S_ambi40.png","常人","image_first",""
"","","","","","html-keyboard-response","264","432006","0.0-13.0-0.0-1.0-0.0-1.27","null","<span style='color:GreenYellow; font-size: 70px;'>正确! </span>","null","","","","","","","","","","","","","","","","","","","","","","","feedback_test"
"","","","","","psychophysics","265","433680","0.0-13.0-0.0-1.0-0.0-0.28","520","","j","","","","","","","","","","","","","key","j","6.94436401673656","768","428","f","false","img/T_ambi40.png","坏人","image_first",""
"","","","","","html-keyboard-response","266","433986","0.0-13.0-0.0-1.0-0.0-1.28","null","<span style='color:red; font-size: 70px;'>错误! </span>","null","","","","","","","","","","","","","","","","","","","","","","","feedback_test"
"","","","","","psychophysics","267","436170","0.0-13.0-0.0-1.0-0.0-0.29","1031","","j","","","","","","","","","","","","","key","j","6.94446964856232","768","428","j","true","img/S_ambi40.png","坏人","image_first",""
"","","","","","html-keyboard-response","268","436473","0.0-13.0-0.0-1.0-0.0-1.29","null","<span style='color:GreenYellow; font-size: 70px;'>正确! </span>","null","","","","","","","","","","","","","","","","","","","","","","","feedback_test"
"","","","","","psychophysics","269","438005","0.0-13.0-0.0-1.0-0.0-0.30","381","","f","","","","","","","","","","","","","key","f","6.944609090908886","768","428","f","true","img/C_ambi40.png","好人","image_first",""
"","","","","","html-keyboard-response","270","438313","0.0-13.0-0.0-1.0-0.0-1.30","null","<span style='color:GreenYellow; font-size: 70px;'>正确! </span>","null","","","","","","","","","","","","","","","","","","","","","","","feedback_test"
"","","","","","psychophysics","271","439976","0.0-13.0-0.0-1.0-0.0-0.31","512","","f","","","","","","","","","","","","","key","f","6.945079831932789","768","428","f","true","img/T_ambi40.png","坏人","image_first",""
"","","","","","html-keyboard-response","272","440295","0.0-13.0-0.0-1.0-0.0-1.31","null","<span style='color:GreenYellow; font-size: 70px;'>正确! </span>","null","","","","","","","","","","","","","","","","","","","","","","","feedback_test"
"","","","","","psychophysics","273","442068","0.0-13.0-0.0-1.0-0.0-0.32","622","","f","","","","","","","","","","","","","key","f","6.944681102362064","768","428","f","true","img/S_ambi40.png","常人","image_first",""
"","","","","","html-keyboard-response","274","442379","0.0-13.0-0.0-1.0-0.0-1.32","null","<span style='color:GreenYellow; font-size: 70px;'>正确! </span>","null","","","","","","","","","","","","","","","","","","","","","","","feedback_test"
"","","","","","psychophysics","275","444083","0.0-13.0-0.0-1.0-0.0-0.33","549","","j","","","","","","","","","","","","","key","j","6.944512295082009","768","428","j","true","img/C_ambi40.png","常人","image_first",""
"","","","","","html-keyboard-response","276","444405","0.0-13.0-0.0-1.0-0.0-1.33","null","<span style='color:GreenYellow; font-size: 70px;'>正确! </span>","null","","","","","","","","","","","","","","","","","","","","","","","feedback_test"
"","","","","","psychophysics","277","446256","0.0-13.0-0.0-1.0-0.0-0.34","700","","j","","","","","","","","","","","","","key","j","6.944664150943216","768","428","j","true","img/S_ambi40.png","好人","image_first",""
"","","","","","html-keyboard-response","278","446575","0.0-13.0-0.0-1.0-0.0-1.34","null","<span style='color:GreenYellow; font-size: 70px;'>正确! </span>","null","","","","","","","","","","","","","","","","","","","","","","","feedback_test"
"","","","","","psychophysics","279","448350","0.0-13.0-0.0-1.0-0.0-0.35","621","","j","","","","","","","","","","","","","key","j","6.940731225296231","768","428","j","true","img/T_ambi40.png","常人","image_first",""
"","","","","","html-keyboard-response","280","448664","0.0-13.0-0.0-1.0-0.0-1.35","null","<span style='color:GreenYellow; font-size: 70px;'>正确! </span>","null","","","","","","","","","","","","","","","","","","","","","","","feedback_test"
"","","","","","psychophysics","281","450598","0.0-13.0-0.0-1.0-0.0-0.36","778","","j","","","","","","","","","","","","","key","j","6.945683636363511","768","428","j","true","img/S_ambi40.png","好人","image_first",""
"","","","","","html-keyboard-response","282","450907","0.0-13.0-0.0-1.0-0.0-1.36","null","<span style='color:GreenYellow; font-size: 70px;'>正确! </span>","null","","","","","","","","","","","","","","","","","","","","","","","feedback_test"
"","","","","","psychophysics","283","452541","0.0-13.0-0.0-1.0-0.0-0.37","478","","f","","","","","","","","","","","","","key","f","6.97443589743582","768","428","f","true","img/T_ambi40.png","坏人","image_first",""
"","","","","","html-keyboard-response","284","452855","0.0-13.0-0.0-1.0-0.0-1.37","null","<span style='color:GreenYellow; font-size: 70px;'>正确! </span>","null","","","","","","","","","","","","","","","","","","","","","","","feedback_test"
"","","","","","psychophysics","285","454689","0.0-13.0-0.0-1.0-0.0-0.38","682","","f","","","","","","","","","","","","","key","f","6.9445893536120415","768","428","f","true","img/S_ambi40.png","常人","image_first",""
"","","","","","html-keyboard-response","286","455004","0.0-13.0-0.0-1.0-0.0-1.38","null","<span style='color:GreenYellow; font-size: 70px;'>正确! </span>","null","","","","","","","","","","","","","","","","","","","","","","","feedback_test"
"","","","","","psychophysics","287","456644","0.0-13.0-0.0-1.0-0.0-0.39","484","","j","","","","","","","","","","","","","key","j","6.944642553191404","768","428","j","true","img/C_ambi40.png","坏人","image_first",""
"","","","","","html-keyboard-response","288","456965","0.0-13.0-0.0-1.0-0.0-1.39","null","<span style='color:GreenYellow; font-size: 70px;'>正确! </span>","null","","","","","","","","","","","","","","","","","","","","","","","feedback_test"
"","","","","","psychophysics","289","458553","0.0-13.0-0.0-1.0-0.0-0.40","434","","f","","","","","","","","","","","","","key","f","6.9755796460178265","768","428","f","true","img/S_ambi40.png","常人","image_first",""
"","","","","","html-keyboard-response","290","458867","0.0-13.0-0.0-1.0-0.0-1.40","null","<span style='color:GreenYellow; font-size: 70px;'>正确! </span>","null","","","","","","","","","","","","","","","","","","","","","","","feedback_test"
"","","","","","psychophysics","291","460504","0.0-13.0-0.0-1.0-0.0-0.41","483","","j","","","","","","","","","","","","","key","j","6.944478632478515","768","428","j","true","img/T_ambi40.png","常人","image_first",""
"","","","","","html-keyboard-response","292","460812","0.0-13.0-0.0-1.0-0.0-1.41","null","<span style='color:GreenYellow; font-size: 70px;'>正确! </span>","null","","","","","","","","","","","","","","","","","","","","","","","feedback_test"
"","","","","","psychophysics","293","462587","0.0-13.0-0.0-1.0-0.0-0.42","621","","j","","","","","","","","","","","","","key","j","6.943976377952829","768","428","j","true","img/C_ambi40.png","常人","image_first",""
"","","","","","html-keyboard-response","294","462903","0.0-13.0-0.0-1.0-0.0-1.42","null","<span style='color:GreenYellow; font-size: 70px;'>正确! </span>","null","","","","","","","","","","","","","","","","","","","","","","","feedback_test"
"","","","","","psychophysics","295","464593","0.0-13.0-0.0-1.0-0.0-0.43","537","","j","","","","","","","","","","","","","key","j","6.9444214876032575","768","428","j","true","img/T_ambi40.png","好人","image_first",""
"","","","","","html-keyboard-response","296","464899","0.0-13.0-0.0-1.0-0.0-1.43","null","<span style='color:GreenYellow; font-size: 70px;'>正确! </span>","null","","","","","","","","","","","","","","","","","","","","","","","feedback_test"
"","","","","","psychophysics","297","466659","0.0-13.0-0.0-1.0-0.0-0.44","603","","f","","","","","","","","","","","","","key","f","6.944670634920522","768","428","j","false","img/S_ambi40.png","坏人","image_first",""
"","","","","","html-keyboard-response","298","466961","0.0-13.0-0.0-1.0-0.0-1.44","null","<span style='color:red; font-size: 70px;'>错误! </span>","null","","","","","","","","","","","","","","","","","","","","","","","feedback_test"
"","","","","","psychophysics","299","468698","0.0-13.0-0.0-1.0-0.0-0.45","586","","f","","","","","","","","","","","","","key","f","6.944253012048217","768","428","f","true","img/C_ambi40.png","好人","image_first",""
"","","","","","html-keyboard-response","300","469014","0.0-13.0-0.0-1.0-0.0-1.45","null","<span style='color:GreenYellow; font-size: 70px;'>正确! </span>","null","","","","","","","","","","","","","","","","","","","","","","","feedback_test"
"","","","","","psychophysics","301","471004","0.0-13.0-0.0-1.0-0.0-0.46","837","","f","","","","","","","","","","","","","key","f","6.944712280701609","768","428","f","true","img/T_ambi40.png","坏人","image_first",""
"","","","","","html-keyboard-response","302","471317","0.0-13.0-0.0-1.0-0.0-1.46","null","<span style='color:GreenYellow; font-size: 70px;'>正确! </span>","null","","","","","","","","","","","","","","","","","","","","","","","feedback_test"
"","","","","","psychophysics","303","472902","0.0-13.0-0.0-1.0-0.0-0.47","430","","f","","","","","","","","","","","","","key","f","6.944511013215773","768","428","f","true","img/C_ambi40.png","好人","image_first",""
"","","","","","html-keyboard-response","304","473221","0.0-13.0-0.0-1.0-0.0-1.47","null","<span style='color:GreenYellow; font-size: 70px;'>正确! </span>","null","","","","","","","","","","","","","","","","","","","","","","","feedback_test"
"","","","","","psychophysics","305","475014","0.0-13.0-0.0-1.0-0.0-0.48","639","","f","","","","","","","","","","","","","key","f","7.025019841269813","768","428","f","true","img/S_ambi40.png","常人","image_first",""
"","","","","","html-keyboard-response","306","475326","0.0-13.0-0.0-1.0-0.0-1.48","null","<span style='color:GreenYellow; font-size: 70px;'>正确! </span>","null","","","","","","","","","","","","","","","","","","","","","","","feedback_test"
"","","","","","psychophysics","307","476956","0.0-13.0-0.0-1.0-0.0-0.49","477","","j","","","","","","","","","","","","","key","j","6.94323275862076","768","428","j","true","img/C_ambi40.png","坏人","image_first",""
"","","","","","html-keyboard-response","308","477272","0.0-13.0-0.0-1.0-0.0-1.49","null","<span style='color:GreenYellow; font-size: 70px;'>正确! </span>","null","","","","","","","","","","","","","","","","","","","","","","","feedback_test"
"","","","","","psychophysics","309","478864","0.0-13.0-0.0-1.0-0.0-0.50","440","","f","","","","","","","","","","","","","key","f","6.944504385964951","768","428","f","true","img/C_ambi40.png","好人","image_first",""
"","","","","","html-keyboard-response","310","479179","0.0-13.0-0.0-1.0-0.0-1.50","null","<span style='color:GreenYellow; font-size: 70px;'>正确! </span>","null","","","","","","","","","","","","","","","","","","","","","","","feedback_test"
"","","","","","psychophysics","311","480893","0.0-13.0-0.0-1.0-0.0-0.51","560","","f","","","","","","","","","","","","","key","f","6.969790123456729","768","428","f","true","img/T_ambi40.png","坏人","image_first",""
"","","","","","html-keyboard-response","312","481204","0.0-13.0-0.0-1.0-0.0-1.51","null","<span style='color:GreenYellow; font-size: 70px;'>正确! </span>","null","","","","","","","","","","","","","","","","","","","","","","","feedback_test"
"","","","","","psychophysics","313","482970","0.0-13.0-0.0-1.0-0.0-0.52","615","","j","","","","","","","","","","","","","key","j","6.944652173913171","768","428","j","true","img/C_ambi40.png","常人","image_first",""
"","","","","","html-keyboard-response","314","483286","0.0-13.0-0.0-1.0-0.0-1.52","null","<span style='color:GreenYellow; font-size: 70px;'>正确! </span>","null","","","","","","","","","","","","","","","","","","","","","","","feedback_test"
"","","","","","psychophysics","315","484911","0.0-13.0-0.0-1.0-0.0-0.53","473","","f","","","","","","","","","","","","","key","f","6.944755364806979","768","428","f","true","img/T_ambi40.png","坏人","image_first",""
"","","","","","html-keyboard-response","316","485221","0.0-13.0-0.0-1.0-0.0-1.53","null","<span style='color:GreenYellow; font-size: 70px;'>正确! </span>","null","","","","","","","","","","","","","","","","","","","","","","","feedback_test"
"","","","","","psychophysics","317","486840","0.0-13.0-0.0-1.0-0.0-0.54","465","","j","","","","","","","","","","","","","key","j","6.972598253275008","768","428","j","true","img/T_ambi40.png","好人","image_first",""
"","","","","","html-keyboard-response","318","487150","0.0-13.0-0.0-1.0-0.0-1.54","null","<span style='color:GreenYellow; font-size: 70px;'>正确! </span>","null","","","","","","","","","","","","","","","","","","","","","","","feedback_test"
"","","","","","psychophysics","319","488712","0.0-13.0-0.0-1.0-0.0-0.55","406","","f","","","","","","","","","","","","","key","f","6.919121076233086","768","428","f","true","img/C_ambi40.png","好人","image_first",""
"","","","","","html-keyboard-response","320","489028","0.0-13.0-0.0-1.0-0.0-1.55","null","<span style='color:GreenYellow; font-size: 70px;'>正确! </span>","null","","","","","","","","","","","","","","","","","","","","","","","feedback_test"
"","","","","","psychophysics","321","490487","0.0-13.0-0.0-1.0-0.0-0.56","306","","f","","","","","","","","","","","","","key","f","6.944461538461417","768","428","j","false","img/S_ambi40.png","坏人","image_first",""
"","","","","","html-keyboard-response","322","490804","0.0-13.0-0.0-1.0-0.0-1.56","null","<span style='color:red; font-size: 70px;'>错误! </span>","null","","","","","","","","","","","","","","","","","","","","","","","feedback_test"
"","","","","","psychophysics","323","492781","0.0-13.0-0.0-1.0-0.0-0.57","822","","f","","","","","","","","","","","","","key","f","6.944742049470046","768","428","f","true","img/S_ambi40.png","常人","image_first",""
"","","","","","html-keyboard-response","324","493095","0.0-13.0-0.0-1.0-0.0-1.57","null","<span style='color:GreenYellow; font-size: 70px;'>正确! </span>","null","","","","","","","","","","","","","","","","","","","","","","","feedback_test"
"","","","","","psychophysics","325","494802","0.0-13.0-0.0-1.0-0.0-0.58","552","","j","","","","","","","","","","","","","key","j","6.975917355371985","768","428","j","true","img/T_ambi40.png","常人","image_first",""
"","","","","","html-keyboard-response","326","495117","0.0-13.0-0.0-1.0-0.0-1.58","null","<span style='color:GreenYellow; font-size: 70px;'>正确! </span>","null","","","","","","","","","","","","","","","","","","","","","","","feedback_test"
"","","","","","psychophysics","327","496960","0.0-13.0-0.0-1.0-0.0-0.59","689","","f","","","","","","","","","","","","","key","f","6.944958333333268","768","428","j","false","img/S_ambi40.png","好人","image_first",""
"","","","","","html-keyboard-response","328","497277","0.0-13.0-0.0-1.0-0.0-1.59","null","<span style='color:red; font-size: 70px;'>错误! </span>","null","","","","","","","","","","","","","","","","","","","","","","","feedback_test"
"","","","","","html-keyboard-response","329","499301","0.0-13.0-0.0-1.0-1.0","2022","<style>.context{color:white; font-size: 35px; line-height:40px}</style>                              <div><p class='context'>您正确回答了88% 的试次。</p><p class='context'>您的平均反应时为576毫秒。</p><p class='context'>请按任意键进入休息</p></div>"," ","","","","","","","","","","","","","","","","","","","","","","",""
"","","","","","html-button-response","330","506252","0.0-13.0-0.0-1.0-2.0","6948","
                      <p>您当前还剩余3组实验</p>
                      <p>现在是休息时间，当您结束休息后，您可以点击 结束休息 按钮 继续</p>
                      <p>建议休息时间还剩余<span id=""iii"">60</span>秒</p>","0","","","","","","","","","","","","","","","","","","","","","","",""
"","","","","","psychophysics","331","508143","0.0-13.0-0.0-1.0-0.1-0.60","739","","f","","","","","","","","","","","","","key","f","6.944498154981667","768","428","f","true","img/C_ambi40.png","好人","image_first",""
"","","","","","html-keyboard-response","332","508456","0.0-13.0-0.0-1.0-0.1-1.60","null","<span style='color:GreenYellow; font-size: 70px;'>正确! </span>","null","","","","","","","","","","","","","","","","","","","","","","","feedback_test"
"","","","","","psychophysics","333","510073","0.0-13.0-0.0-1.0-0.1-0.61","466","","f","","","","","","","","","","","","","key","f","6.944573275862083","768","428","f","true","img/C_ambi40.png","好人","image_first",""
"","","","","","html-keyboard-response","334","510379","0.0-13.0-0.0-1.0-0.1-1.61","null","<span style='color:GreenYellow; font-size: 70px;'>正确! </span>","null","","","","","","","","","","","","","","","","","","","","","","","feedback_test"
"","","","","","psychophysics","335","512257","0.0-13.0-0.0-1.0-0.1-0.62","728","","j","","","","","","","","","","","","","key","j","6.944446096654209","768","428","j","true","img/S_ambi40.png","好人","image_first",""
"","","","","","html-keyboard-response","336","512561","0.0-13.0-0.0-1.0-0.1-1.62","null","<span style='color:GreenYellow; font-size: 70px;'>正确! </span>","null","","","","","","","","","","","","","","","","","","","","","","","feedback_test"
"","","","","","psychophysics","337","514429","0.0-13.0-0.0-1.0-0.1-0.63","714","","f","","","","","","","","","","","","","key","f","6.942289473684339","768","428","f","true","img/T_ambi40.png","坏人","image_first",""
"","","","","","html-keyboard-response","338","514749","0.0-13.0-0.0-1.0-0.1-1.63","null","<span style='color:GreenYellow; font-size: 70px;'>正确! </span>","null","","","","","","","","","","","","","","","","","","","","","","","feedback_test"
"","","","","","psychophysics","339","516580","0.0-13.0-0.0-1.0-0.1-0.64","677","","j","","","","","","","","","","","","","key","j","6.9447290076337","768","428","j","true","img/T_ambi40.png","好人","image_first",""
"","","","","","html-keyboard-response","340","516903","0.0-13.0-0.0-1.0-0.1-1.64","null","<span style='color:GreenYellow; font-size: 70px;'>正确! </span>","null","","","","","","","","","","","","","","","","","","","","","","","feedback_test"
"","","","","","psychophysics","341","518732","0.0-13.0-0.0-1.0-0.1-0.65","676","","j","","","","","","","","","","","","","key","j","6.945160305343448","768","428","j","true","img/S_ambi40.png","坏人","image_first",""
"","","","","","html-keyboard-response","342","519049","0.0-13.0-0.0-1.0-0.1-1.65","null","<span style='color:GreenYellow; font-size: 70px;'>正确! </span>","null","","","","","","","","","","","","","","","","","","","","","","","feedback_test"
"","","","","","psychophysics","343","520671","0.0-13.0-0.0-1.0-0.1-0.66","469","","f","","","","","","","","","","","","","key","f","6.944995689655179","768","428","f","true","img/S_ambi40.png","常人","image_first",""
"","","","","","html-keyboard-response","344","520985","0.0-13.0-0.0-1.0-0.1-1.66","null","<span style='color:GreenYellow; font-size: 70px;'>正确! </span>","null","","","","","","","","","","","","","","","","","","","","","","","feedback_test"
"","","","","","psychophysics","345","522686","0.0-13.0-0.0-1.0-0.1-0.67","548","","j","","","","","","","","","","","","","key","j","6.938524793388278","768","428","j","true","img/T_ambi40.png","常人","image_first",""
"","","","","","html-keyboard-response","346","522994","0.0-13.0-0.0-1.0-0.1-1.67","null","<span style='color:GreenYellow; font-size: 70px;'>正确! </span>","null","","","","","","","","","","","","","","","","","","","","","","","feedback_test"
"","","","","","psychophysics","347","524685","0.0-13.0-0.0-1.0-0.1-0.68","538","","j","","","","","","","","","","","","","key","j","7.061210084033733","768","428","j","true","img/C_ambi40.png","坏人","image_first",""
"","","","","","html-keyboard-response","348","524999","0.0-13.0-0.0-1.0-0.1-1.68","null","<span style='color:GreenYellow; font-size: 70px;'>正确! </span>","null","","","","","","","","","","","","","","","","","","","","","","","feedback_test"
"","","","","","psychophysics","349","526813","0.0-13.0-0.0-1.0-0.1-0.69","662","","f","","","","","","","","","","","","","key","f","6.944321705426392","768","428","f","true","img/T_ambi40.png","坏人","image_first",""
"","","","","","html-keyboard-response","350","527127","0.0-13.0-0.0-1.0-0.1-1.69","null","<span style='color:GreenYellow; font-size: 70px;'>正确! </span>","null","","","","","","","","","","","","","","","","","","","","","","","feedback_test"
"","","","","","psychophysics","351","528913","0.0-13.0-0.0-1.0-0.1-0.70","635","","j","","","","","","","","","","","","","key","j","6.944777343750047","768","428","j","true","img/C_ambi40.png","常人","image_first",""
"","","","","","html-keyboard-response","352","529230","0.0-13.0-0.0-1.0-0.1-1.70","null","<span style='color:GreenYellow; font-size: 70px;'>正确! </span>","null","","","","","","","","","","","","","","","","","","","","","","","feedback_test"
"","","","","","psychophysics","353","530873","0.0-13.0-0.0-1.0-0.1-0.71","491","","f","","","","","","","","","","","","","key","f","6.94527659574474","768","428","f","true","img/S_ambi40.png","常人","image_first",""
"","","","","","html-keyboard-response","354","531179","0.0-13.0-0.0-1.0-0.1-1.71","null","<span style='color:GreenYellow; font-size: 70px;'>正确! </span>","null","","","","","","","","","","","","","","","","","","","","","","","feedback_test"
"","","","","","psychophysics","355","532912","0.0-13.0-0.0-1.0-0.1-0.72","578","","f","","","","","","","","","","","","","key","f","6.9444475806451536","768","428","f","true","img/T_ambi40.png","坏人","image_first",""
"","","","","","html-keyboard-response","356","533231","0.0-13.0-0.0-1.0-0.1-1.72","null","<span style='color:GreenYellow; font-size: 70px;'>正确! </span>","null","","","","","","","","","","","","","","","","","","","","","","","feedback_test"
"","","","","","psychophysics","357","534929","0.0-13.0-0.0-1.0-0.1-0.73","546","","j","","","","","","","","","","","","","key","j","6.944633744855856","768","428","j","true","img/C_ambi40.png","常人","image_first",""
"","","","","","html-keyboard-response","358","535244","0.0-13.0-0.0-1.0-0.1-1.73","null","<span style='color:GreenYellow; font-size: 70px;'>正确! </span>","null","","","","","","","","","","","","","","","","","","","","","","","feedback_test"
"","","","","","psychophysics","359","537151","0.0-13.0-0.0-1.0-0.1-0.74","755","","j","","","","","","","","","","","","","key","j","6.94480952380938","768","428","j","true","img/S_ambi40.png","好人","image_first",""
"","","","","","html-keyboard-response","360","537461","0.0-13.0-0.0-1.0-0.1-1.74","null","<span style='color:GreenYellow; font-size: 70px;'>正确! </span>","null","","","","","","","","","","","","","","","","","","","","","","","feedback_test"
"","","","","","psychophysics","361","539087","0.0-13.0-0.0-1.0-0.1-0.75","475","","f","","","","","","","","","","","","","key","f","6.9445321888412055","768","428","f","true","img/T_ambi40.png","坏人","image_first",""
"","","","","","html-keyboard-response","362","539406","0.0-13.0-0.0-1.0-0.1-1.75","null","<span style='color:GreenYellow; font-size: 70px;'>正确! </span>","null","","","","","","","","","","","","","","","","","","","","","","","feedback_test"
"","","","","","psychophysics","363","541149","0.0-13.0-0.0-1.0-0.1-0.76","593","","f","","","","","","","","","","","","","key","f","6.944143999999855","768","428","f","true","img/S_ambi40.png","常人","image_first",""
"","","","","","html-keyboard-response","364","541468","0.0-13.0-0.0-1.0-0.1-1.76","null","<span style='color:GreenYellow; font-size: 70px;'>正确! </span>","null","","","","","","","","","","","","","","","","","","","","","","","feedback_test"
"","","","","","psychophysics","365","543064","0.0-13.0-0.0-1.0-0.1-0.77","444","","f","","","","","","","","","","","","","key","f","6.974720524017512","768","428","f","true","img/C_ambi40.png","好人","image_first",""
"","","","","","html-keyboard-response","366","543372","0.0-13.0-0.0-1.0-0.1-1.77","null","<span style='color:GreenYellow; font-size: 70px;'>正确! </span>","null","","","","","","","","","","","","","","","","","","","","","","","feedback_test"
"","","","","","psychophysics","367","545031","0.0-13.0-0.0-1.0-0.1-0.78","503","","f","","","","","","","","","","","","","key","f","6.944319327731183","768","428","f","true","img/C_ambi40.png","好人","image_first",""
"","","","","","html-keyboard-response","368","545344","0.0-13.0-0.0-1.0-0.1-1.78","null","<span style='color:GreenYellow; font-size: 70px;'>正确! </span>","null","","","","","","","","","","","","","","","","","","","","","","","feedback_test"
"","","","","","psychophysics","369","547324","0.0-13.0-0.0-1.0-0.1-0.79","827","","j","","","","","","","","","","","","","key","j","6.972494661921529","768","428","j","true","img/S_ambi40.png","坏人","image_first",""
"","","","","","html-keyboard-response","370","547636","0.0-13.0-0.0-1.0-0.1-1.79","null","<span style='color:GreenYellow; font-size: 70px;'>正确! </span>","null","","","","","","","","","","","","","","","","","","","","","","","feedback_test"
"","","","","","psychophysics","371","549435","0.0-13.0-0.0-1.0-0.1-0.80","648","","j","","","","","","","","","","","","","key","j","6.944410852713387","768","428","j","true","img/T_ambi40.png","好人","image_first",""
"","","","","","html-keyboard-response","372","549740","0.0-13.0-0.0-1.0-0.1-1.80","null","<span style='color:GreenYellow; font-size: 70px;'>正确! </span>","null","","","","","","","","","","","","","","","","","","","","","","","feedback_test"
"","","","","","psychophysics","373","551402","0.0-13.0-0.0-1.0-0.1-0.81","511","","j","","","","","","","","","","","","","key","j","6.944130252100754","768","428","j","true","img/C_ambi40.png","坏人","image_first",""
"","","","","","html-keyboard-response","374","551707","0.0-13.0-0.0-1.0-0.1-1.81","null","<span style='color:GreenYellow; font-size: 70px;'>正确! </span>","null","","","","","","","","","","","","","","","","","","","","","","","feedback_test"
"","","","","","psychophysics","375","553508","0.0-13.0-0.0-1.0-0.1-0.82","647","","j","","","","","","","","","","","","","key","j","6.940507812500073","768","428","j","true","img/T_ambi40.png","常人","image_first",""
"","","","","","html-keyboard-response","376","553815","0.0-13.0-0.0-1.0-0.1-1.82","null","<span style='color:GreenYellow; font-size: 70px;'>正确! </span>","null","","","","","","","","","","","","","","","","","","","","","","","feedback_test"
"","","","","","psychophysics","377","555433","0.0-13.0-0.0-1.0-0.1-0.83","468","","f","","","","","","","","","","","","","key","f","6.944193965517052","768","428","f","true","img/S_ambi40.png","常人","image_first",""
"","","","","","html-keyboard-response","378","555747","0.0-13.0-0.0-1.0-0.1-1.83","null","<span style='color:GreenYellow; font-size: 70px;'>正确! </span>","null","","","","","","","","","","","","","","","","","","","","","","","feedback_test"
"","","","","","psychophysics","379","557373","0.0-13.0-0.0-1.0-0.1-0.84","476","","j","","","","","","","","","","","","","key","j","6.944669527897028","768","428","j","true","img/S_ambi40.png","坏人","image_first",""
"","","","","","html-keyboard-response","380","557693","0.0-13.0-0.0-1.0-0.1-1.84","null","<span style='color:GreenYellow; font-size: 70px;'>正确! </span>","null","","","","","","","","","","","","","","","","","","","","","","","feedback_test"
"","","","","","psychophysics","381","559526","0.0-13.0-0.0-1.0-0.1-0.85","678","","f","","","","","","","","","","","","","key","f","6.944446564885745","768","428","f","true","img/S_ambi40.png","常人","image_first",""
"","","","","","html-keyboard-response","382","559834","0.0-13.0-0.0-1.0-0.1-1.85","null","<span style='color:GreenYellow; font-size: 70px;'>正确! </span>","null","","","","","","","","","","","","","","","","","","","","","","","feedback_test"
"","","","","","psychophysics","383","561676","0.0-13.0-0.0-1.0-0.1-0.86","691","","f","","","","","","","","","","","","","key","f","6.944560606060832","768","428","f","true","img/T_ambi40.png","坏人","image_first",""
"","","","","","html-keyboard-response","384","561978","0.0-13.0-0.0-1.0-0.1-1.86","null","<span style='color:GreenYellow; font-size: 70px;'>正确! </span>","null","","","","","","","","","","","","","","","","","","","","","","","feedback_test"
"","","","","","psychophysics","385","563731","0.0-13.0-0.0-1.0-0.1-0.87","600","","f","","","","","","","","","","","","","key","f","6.944178571428878","768","428","f","true","img/S_ambi40.png","常人","image_first",""
"","","","","","html-keyboard-response","386","564046","0.0-13.0-0.0-1.0-0.1-1.87","null","<span style='color:GreenYellow; font-size: 70px;'>正确! </span>","null","","","","","","","","","","","","","","","","","","","","","","","feedback_test"
"","","","","","psychophysics","387","565686","0.0-13.0-0.0-1.0-0.1-0.88","484","","j","","","","","","","","","","","","","key","j","6.9448127659572725","768","428","j","true","img/C_ambi40.png","常人","image_first",""
"","","","","","html-keyboard-response","388","565997","0.0-13.0-0.0-1.0-0.1-1.88","null","<span style='color:GreenYellow; font-size: 70px;'>正确! </span>","null","","","","","","","","","","","","","","","","","","","","","","","feedback_test"
"","","","","","psychophysics","389","567692","0.0-13.0-0.0-1.0-0.1-0.89","538","","f","","","","","","","","","","","","","key","f","6.945197530864515","768","428","f","true","img/T_ambi40.png","坏人","image_first",""
"","","","","","html-keyboard-response","390","568006","0.0-13.0-0.0-1.0-0.1-1.89","null","<span style='color:GreenYellow; font-size: 70px;'>正确! </span>","null","","","","","","","","","","","","","","","","","","","","","","","feedback_test"
"","","","","","psychophysics","391","570198","0.0-13.0-0.0-1.0-0.1-0.90","1037","","j","","","","","","","","","","","","","key","j","6.944264331210039","768","428","j","true","img/S_ambi40.png","好人","image_first",""
"","","","","","html-keyboard-response","392","570515","0.0-13.0-0.0-1.0-0.1-1.90","null","<span style='color:GreenYellow; font-size: 70px;'>正确! </span>","null","","","","","","","","","","","","","","","","","","","","","","","feedback_test"
"","","","","","psychophysics","393","572088","0.0-13.0-0.0-1.0-0.1-0.91","422","","f","","","","","","","","","","","","","key","f","6.944462222222549","768","428","f","true","img/C_ambi40.png","好人","image_first",""
"","","","","","html-keyboard-response","394","572407","0.0-13.0-0.0-1.0-0.1-1.91","null","<span style='color:GreenYellow; font-size: 70px;'>正确! </span>","null","","","","","","","","","","","","","","","","","","","","","","","feedback_test"
"","","","","","psychophysics","395","574444","0.0-13.0-0.0-1.0-0.1-0.92","881","","j","","","","","","","","","","","","","key","j","6.9444794520549955","768","428","j","true","img/T_ambi40.png","常人","image_first",""
"","","","","","html-keyboard-response","396","574760","0.0-13.0-0.0-1.0-0.1-1.92","null","<span style='color:GreenYellow; font-size: 70px;'>正确! </span>","null","","","","","","","","","","","","","","","","","","","","","","","feedback_test"
"","","","","","psychophysics","397","576414","0.0-13.0-0.0-1.0-0.1-0.93","503","","j","","","","","","","","","","","","","key","j","6.944628691983032","768","428","j","true","img/C_ambi40.png","坏人","image_first",""
"","","","","","html-keyboard-response","398","576729","0.0-13.0-0.0-1.0-0.1-1.93","null","<span style='color:GreenYellow; font-size: 70px;'>正确! </span>","null","","","","","","","","","","","","","","","","","","","","","","","feedback_test"
"","","","","","psychophysics","399","578442","0.0-13.0-0.0-1.0-0.1-0.94","561","","j","","","","","","","","","","","","","key","j","6.97301229508212","768","428","j","true","img/T_ambi40.png","好人","image_first",""
"","","","","","html-keyboard-response","400","578757","0.0-13.0-0.0-1.0-0.1-1.94","null","<span style='color:GreenYellow; font-size: 70px;'>正确! </span>","null","","","","","","","","","","","","","","","","","","","","","","","feedback_test"
"","","","","","psychophysics","401","580300","0.0-13.0-0.0-1.0-0.1-0.95","390","","f","","","","","","","","","","","","","key","f","6.944495454545408","768","428","f","true","img/C_ambi40.png","好人","image_first",""
"","","","","","html-keyboard-response","402","580606","0.0-13.0-0.0-1.0-0.1-1.95","null","<span style='color:GreenYellow; font-size: 70px;'>正确! </span>","null","","","","","","","","","","","","","","","","","","","","","","","feedback_test"
"","","","","","psychophysics","403","582239","0.0-13.0-0.0-1.0-0.1-0.96","481","","f","","","","","","","","","","","","","key","f","7.034818181818456","768","428","f","true","img/S_ambi40.png","常人","image_first",""
"","","","","","html-keyboard-response","404","582559","0.0-13.0-0.0-1.0-0.1-1.96","null","<span style='color:GreenYellow; font-size: 70px;'>正确! </span>","null","","","","","","","","","","","","","","","","","","","","","","","feedback_test"
"","","","","","psychophysics","405","584188","0.0-13.0-0.0-1.0-0.1-0.97","474","","j","","","","","","","","","","","","","key","j","6.974525862068825","768","428","j","true","img/S_ambi40.png","坏人","image_first",""
"","","","","","html-keyboard-response","406","584491","0.0-13.0-0.0-1.0-0.1-1.97","null","<span style='color:GreenYellow; font-size: 70px;'>正确! </span>","null","","","","","","","","","","","","","","","","","","","","","","","feedback_test"
"","","","","","psychophysics","407","586220","0.0-13.0-0.0-1.0-0.1-0.98","574","","f","","","","","","","","","","","","","key","f","7.269293617021213","768","428","f","true","img/T_ambi40.png","坏人","image_first",""
"","","","","","html-keyboard-response","408","586522","0.0-13.0-0.0-1.0-0.1-1.98","null","<span style='color:GreenYellow; font-size: 70px;'>正确! </span>","null","","","","","","","","","","","","","","","","","","","","","","","feedback_test"
"","","","","","psychophysics","409","588134","0.0-13.0-0.0-1.0-0.1-0.99","460","","f","","","","","","","","","","","","","key","f","6.9444978354978515","768","428","f","true","img/C_ambi40.png","好人","image_first",""
"","","","","","html-keyboard-response","410","588455","0.0-13.0-0.0-1.0-0.1-1.99","null","<span style='color:GreenYellow; font-size: 70px;'>正确! </span>","null","","","","","","","","","","","","","","","","","","","","","","","feedback_test"
"","","","","","psychophysics","411","590014","0.0-13.0-0.0-1.0-0.1-0.100","408","","f","","","","","","","","","","","","","key","f","6.944739910314014","768","428","j","false","img/C_ambi40.png","坏人","image_first",""
"","","","","","html-keyboard-response","412","590328","0.0-13.0-0.0-1.0-0.1-1.100","null","<span style='color:red; font-size: 70px;'>错误! </span>","null","","","","","","","","","","","","","","","","","","","","","","","feedback_test"
"","","","","","psychophysics","413","591961","0.0-13.0-0.0-1.0-0.1-0.101","482","","f","","","","","","","","","","","","","key","f","6.944358974358895","768","428","f","true","img/T_ambi40.png","坏人","image_first",""
"","","","","","html-keyboard-response","414","592265","0.0-13.0-0.0-1.0-0.1-1.101","null","<span style='color:GreenYellow; font-size: 70px;'>正确! </span>","null","","","","","","","","","","","","","","","","","","","","","","","feedback_test"
"","","","","","psychophysics","415","593891","0.0-13.0-0.0-1.0-0.1-0.102","475","","j","","","","","","","","","","","","","key","j","6.944626609442052","768","428","j","true","img/T_ambi40.png","好人","image_first",""
"","","","","","html-keyboard-response","416","594197","0.0-13.0-0.0-1.0-0.1-1.102","null","<span style='color:GreenYellow; font-size: 70px;'>正确! </span>","null","","","","","","","","","","","","","","","","","","","","","","","feedback_test"
"","","","","","psychophysics","417","595946","0.0-13.0-0.0-1.0-0.1-0.103","596","","j","","","","","","","","","","","","","key","j","6.972510040160287","768","428","j","true","img/C_ambi40.png","常人","image_first",""
"","","","","","html-keyboard-response","418","596254","0.0-13.0-0.0-1.0-0.1-1.103","null","<span style='color:GreenYellow; font-size: 70px;'>正确! </span>","null","","","","","","","","","","","","","","","","","","","","","","","feedback_test"
"","","","","","psychophysics","419","597911","0.0-13.0-0.0-1.0-0.1-0.104","502","","f","","","","","","","","","","","","","key","f","6.945042016806899","768","428","f","true","img/S_ambi40.png","常人","image_first",""
"","","","","","html-keyboard-response","420","598217","0.0-13.0-0.0-1.0-0.1-1.104","null","<span style='color:GreenYellow; font-size: 70px;'>正确! </span>","null","","","","","","","","","","","","","","","","","","","","","","","feedback_test"
"","","","","","psychophysics","421","599880","0.0-13.0-0.0-1.0-0.1-0.105","511","","f","","","","","","","","","","","","","key","f","6.944563025210499","768","428","f","true","img/C_ambi40.png","好人","image_first",""
"","","","","","html-keyboard-response","422","600193","0.0-13.0-0.0-1.0-0.1-1.105","null","<span style='color:GreenYellow; font-size: 70px;'>正确! </span>","null","","","","","","","","","","","","","","","","","","","","","","","feedback_test"
"","","","","","psychophysics","423","601870","0.0-13.0-0.0-1.0-0.1-0.106","523","","j","","","","","","","","","","","","","key","j","6.943615062761405","768","428","j","true","img/S_ambi40.png","好人","image_first",""
"","","","","","html-keyboard-response","424","602190","0.0-13.0-0.0-1.0-0.1-1.106","null","<span style='color:GreenYellow; font-size: 70px;'>正确! </span>","null","","","","","","","","","","","","","","","","","","","","","","","feedback_test"
"","","","","","psychophysics","425","604110","0.0-13.0-0.0-1.0-0.1-0.107","769","","j","","","","","","","","","","","","","key","j","6.944770909091035","768","428","j","true","img/T_ambi40.png","常人","image_first",""
"","","","","","html-keyboard-response","426","604432","0.0-13.0-0.0-1.0-0.1-1.107","null","<span style='color:GreenYellow; font-size: 70px;'>正确! </span>","null","","","","","","","","","","","","","","","","","","","","","","","feedback_test"
"","","","","","psychophysics","427","606107","0.0-13.0-0.0-1.0-0.1-0.108","524","","f","","","","","","","","","","","","","key","f","6.944483333333725","768","428","f","true","img/T_ambi40.png","坏人","image_first",""
"","","","","","html-keyboard-response","428","606410","0.0-13.0-0.0-1.0-0.1-1.108","null","<span style='color:GreenYellow; font-size: 70px;'>正确! </span>","null","","","","","","","","","","","","","","","","","","","","","","","feedback_test"
"","","","","","psychophysics","429","608100","0.0-13.0-0.0-1.0-0.1-0.109","538","","j","","","","","","","","","","","","","key","j","6.94464049586778","768","428","j","true","img/C_ambi40.png","坏人","image_first",""
"","","","","","html-keyboard-response","430","608410","0.0-13.0-0.0-1.0-0.1-1.109","null","<span style='color:GreenYellow; font-size: 70px;'>正确! </span>","null","","","","","","","","","","","","","","","","","","","","","","","feedback_test"
"","","","","","psychophysics","431","610370","0.0-13.0-0.0-1.0-0.1-0.110","808","","j","","","","","","","","","","","","","key","j","6.9447473309606025","768","428","f","false","img/T_ambi40.png","坏人","image_first",""
"","","","","","html-keyboard-response","432","610685","0.0-13.0-0.0-1.0-0.1-1.110","null","<span style='color:red; font-size: 70px;'>错误! </span>","null","","","","","","","","","","","","","","","","","","","","","","","feedback_test"
