"success","timeout","failed_images","failed_audio","failed_video","trial_type","trial_index","time_elapsed","internal_node_id","rt","stimulus","response","value","item_width_mm","item_height_mm","item_width_px","px2mm","view_dist_mm","item_width_deg","px2deg","scale_factor","win_width_deg","win_height_deg","view_history","response_type","key_press","avg_frame_time","center_x","center_y","correct_response","correct","Image","word","condition","screen_id"
"true","false","[]","[]","[]","preload","0","32788","0.0-0.0","","","","","","","","","","","","","","","","","","","","","","","","","",""
"","","","","","html-keyboard-response","1","82574","0.0-1.0","49785","
     <p>您好，欢迎参加本次实验。</p>
     <p>为充分保障您的权利，请确保您已经知晓并同意《参与实验同意书》以及《数据公开知情同意书》。</p>
     <p>如果您未见过上述内容，请咨询实验员。</p>
     <p>如果您选择继续实验，则表示您已经清楚两份知情同意书的内容并同意。</p>
     <p> <div style = ""color: green""><按任意键至下页></div> </p>
     "," ","","","","","","","","","","","","","","","","","","","","","","",""
"","","","","","html-keyboard-response","2","88395","0.0-2.0","5820","
     <p>本实验首先需要您填写一些基本个人信息。</p>
     <p> <div style = ""color: green""><按任意键至下页></div></p>
     "," ","","","","","","","","","","","","","","","","","","","","","","",""
"","","","","","call-function","3","88397","0.0-3.0-0.0","","","","","","","","","","","","","","","","","","","","","","","","","",""
"","","","","","survey-html-form","4","93050","0.0-3.0-1.0","4652","","{""Q0"":""3""}","","","","","","","","","","","","","","","","","","","","","","",""
"","","","","","html-button-response","5","94359","0.0-3.0-2.0","1306","<p style = 'color : white'>您的性别</p>","1","","","","","","","","","","","","","","","","","","","","","","",""
"","","","","","survey-html-form","6","98288","0.0-3.0-3.0","3927","","{""Q0"":""2001""}","","","","","","","","","","","","","","","","","","","","","","",""
"","","","","","survey-html-form","7","101536","0.0-3.0-4.0","3246","","{""Q0"":""5""}","","","","","","","","","","","","","","","","","","","","","","",""
"","","","","","virtual-chinrest","8","259543","0.0-4.0","158001","","","","85.6","53.98","484.10430159983565","5.65262963926867","505.35","9.682086031996715","50","0.7023279877422915","22.34","11.62","","","","","","","","","","","",""
"true","","","","","fullscreen","9","264456","0.0-5.0","","","","","","","","","","","","","","","","","","","","","","","","","",""
"","","","","","instructions","10","360935","0.0-6.0","96478","","","","","","","","","","","","","","[{""page_index"":0,""viewing_time"":27801},{""page_index"":1,""viewing_time"":36316},{""page_index"":2,""viewing_time"":26939},{""page_index"":3,""viewing_time"":5421}]","","","","","","","","","","",""
"","","","","","psychophysics","11","363602","0.0-7.0-0.0-0.0","null","","null","","","","","","","","","","","","","key","null","16.668037735849015","581.8181692076126","359.9999921972103","f","false","img/C_ambi40.png","坏人","prac_image_first",""
"","","","","","html-keyboard-response","12","363911","0.0-7.0-0.0-1.0","null","<span class='add_' style='color:yellow; font-size: 70px;'> 太慢! </span>","null","","","","","","","","","","","","","","","","","","","","","","","feedback_test"
"","","","","","psychophysics","13","366566","0.0-7.0-0.0-0.1","null","","null","","","","","","","","","","","","","key","null","16.666430379747034","581.8181692076126","359.9999921972103","j","false","img/S_ambi40.png","坏人","prac_image_first",""
"","","","","","html-keyboard-response","14","366871","0.0-7.0-0.0-1.1","null","<span class='add_' style='color:yellow; font-size: 70px;'> 太慢! </span>","null","","","","","","","","","","","","","","","","","","","","","","","feedback_test"
"","","","","","psychophysics","15","369535","0.0-7.0-0.0-0.2","null","","null","","","","","","","","","","","","","key","null","16.664873417721445","581.8181692076126","359.9999921972103","f","false","img/C_ambi40.png","好人","prac_image_first",""
"","","","","","html-keyboard-response","16","369841","0.0-7.0-0.0-1.2","null","<span class='add_' style='color:yellow; font-size: 70px;'> 太慢! </span>","null","","","","","","","","","","","","","","","","","","","","","","","feedback_test"
"","","","","","psychophysics","17","372501","0.0-7.0-0.0-0.3","null","","null","","","","","","","","","","","","","key","null","16.661462025316446","581.8181692076126","359.9999921972103","j","false","img/C_ambi40.png","常人","prac_image_first",""
"","","","","","html-keyboard-response","18","372813","0.0-7.0-0.0-1.3","null","<span class='add_' style='color:yellow; font-size: 70px;'> 太慢! </span>","null","","","","","","","","","","","","","","","","","","","","","","","feedback_test"
"","","","","","psychophysics","19","375468","0.0-7.0-0.0-0.4","null","","null","","","","","","","","","","","","","key","null","16.666320754717024","581.8181692076126","359.9999921972103","f","false","img/T_ambi40.png","坏人","prac_image_first",""
"","","","","","html-keyboard-response","20","375793","0.0-7.0-0.0-1.4","null","<span class='add_' style='color:yellow; font-size: 70px;'> 太慢! </span>","null","","","","","","","","","","","","","","","","","","","","","","","feedback_test"
"","","","","","psychophysics","21","377883","0.0-7.0-0.0-0.5","932","","f","","","","","","","","","","","","","key","f","16.668346774193548","581.8181692076126","359.9999921972103","f","true","img/T_ambi40.png","常人","prac_image_first",""
"","","","","","html-keyboard-response","22","378193","0.0-7.0-0.0-1.5","null","<span style='color:GreenYellow; font-size: 70px;'>正确! </span>","null","","","","","","","","","","","","","","","","","","","","","","","feedback_test"
"","","","","","psychophysics","23","380299","0.0-7.0-0.0-0.6","942","","j","","","","","","","","","","","","","key","j","16.66666400000034","581.8181692076126","359.9999921972103","j","true","img/T_ambi40.png","好人","prac_image_first",""
"","","","","","html-keyboard-response","24","380620","0.0-7.0-0.0-1.6","null","<span style='color:GreenYellow; font-size: 70px;'>正确! </span>","null","","","","","","","","","","","","","","","","","","","","","","","feedback_test"
"","","","","","psychophysics","25","383057","0.0-7.0-0.0-0.7","1275","","j","","","","","","","","","","","","","key","j","16.66625517241392","581.8181692076126","359.9999921972103","j","true","img/C_ambi40.png","常人","prac_image_first",""
"","","","","","html-keyboard-response","26","383371","0.0-7.0-0.0-1.7","null","<span style='color:GreenYellow; font-size: 70px;'>正确! </span>","null","","","","","","","","","","","","","","","","","","","","","","","feedback_test"
"","","","","","psychophysics","27","385277","0.0-7.0-0.0-0.8","752","","f","","","","","","","","","","","","","key","f","16.66652212389415","581.8181692076126","359.9999921972103","f","true","img/S_ambi40.png","好人","prac_image_first",""
"","","","","","html-keyboard-response","28","385591","0.0-7.0-0.0-1.8","null","<span style='color:GreenYellow; font-size: 70px;'>正确! </span>","null","","","","","","","","","","","","","","","","","","","","","","","feedback_test"
"","","","","","psychophysics","29","387596","0.0-7.0-0.0-0.9","845","","f","","","","","","","","","","","","","key","f","16.666621848739812","581.8181692076126","359.9999921972103","f","true","img/S_ambi40.png","常人","prac_image_first",""
"","","","","","html-keyboard-response","30","387915","0.0-7.0-0.0-1.9","null","<span style='color:GreenYellow; font-size: 70px;'>正确! </span>","null","","","","","","","","","","","","","","","","","","","","","","","feedback_test"
"","","","","","psychophysics","31","390248","0.0-7.0-0.0-0.10","1181","","j","","","","","","","","","","","","","key","j","16.666297101449015","581.8181692076126","359.9999921972103","j","true","img/S_ambi40.png","坏人","prac_image_first",""
"","","","","","html-keyboard-response","32","390551","0.0-7.0-0.0-1.10","null","<span style='color:GreenYellow; font-size: 70px;'>正确! </span>","null","","","","","","","","","","","","","","","","","","","","","","","feedback_test"
"","","","","","psychophysics","33","392600","0.0-7.0-0.0-0.11","887","","j","","","","","","","","","","","","","key","j","16.667041322314045","581.8181692076126","359.9999921972103","j","true","img/T_ambi40.png","好人","prac_image_first",""
"","","","","","html-keyboard-response","34","392916","0.0-7.0-0.0-1.11","null","<span style='color:GreenYellow; font-size: 70px;'>正确! </span>","null","","","","","","","","","","","","","","","","","","","","","","","feedback_test"
"","","","","","psychophysics","35","394985","0.0-7.0-0.0-0.12","915","","j","","","","","","","","","","","","","key","j","16.666569105691156","581.8181692076126","359.9999921972103","j","true","img/C_ambi40.png","常人","prac_image_first",""
"","","","","","html-keyboard-response","36","395311","0.0-7.0-0.0-1.12","null","<span style='color:GreenYellow; font-size: 70px;'>正确! </span>","null","","","","","","","","","","","","","","","","","","","","","","","feedback_test"
"","","","","","psychophysics","37","397492","0.0-7.0-0.0-0.13","1025","","f","","","","","","","","","","","","","key","f","16.666823076923343","581.8181692076126","359.9999921972103","f","true","img/S_ambi40.png","常人","prac_image_first",""
"","","","","","html-keyboard-response","38","397802","0.0-7.0-0.0-1.13","null","<span style='color:GreenYellow; font-size: 70px;'>正确! </span>","null","","","","","","","","","","","","","","","","","","","","","","","feedback_test"
"","","","","","psychophysics","39","399687","0.0-7.0-0.0-0.14","722","","j","","","","","","","","","","","","","key","j","16.666607142857433","581.8181692076126","359.9999921972103","j","true","img/S_ambi40.png","坏人","prac_image_first",""
"","","","","","html-keyboard-response","40","400002","0.0-7.0-0.0-1.14","null","<span style='color:GreenYellow; font-size: 70px;'>正确! </span>","null","","","","","","","","","","","","","","","","","","","","","","","feedback_test"
"","","","","","psychophysics","41","401782","0.0-7.0-0.0-0.15","626","","j","","","","","","","","","","","","","key","j","16.66623809523825","581.8181692076126","359.9999921972103","j","true","img/S_ambi40.png","坏人","prac_image_first",""
"","","","","","html-keyboard-response","42","402091","0.0-7.0-0.0-1.15","null","<span style='color:GreenYellow; font-size: 70px;'>正确! </span>","null","","","","","","","","","","","","","","","","","","","","","","","feedback_test"
"","","","","","psychophysics","43","404281","0.0-7.0-0.0-0.16","1033","","f","","","","","","","","","","","","","key","f","16.668084615384803","581.8181692076126","359.9999921972103","f","true","img/C_ambi40.png","好人","prac_image_first",""
"","","","","","html-keyboard-response","44","404595","0.0-7.0-0.0-1.16","null","<span style='color:GreenYellow; font-size: 70px;'>正确! </span>","null","","","","","","","","","","","","","","","","","","","","","","","feedback_test"
"","","","","","psychophysics","45","406302","0.0-7.0-0.0-0.17","554","","j","","","","","","","","","","","","","key","j","16.66616831683164","581.8181692076126","359.9999921972103","j","true","img/T_ambi40.png","好人","prac_image_first",""
"","","","","","html-keyboard-response","46","406611","0.0-7.0-0.0-1.17","null","<span style='color:GreenYellow; font-size: 70px;'>正确! </span>","null","","","","","","","","","","","","","","","","","","","","","","","feedback_test"
"","","","","","psychophysics","47","408460","0.0-7.0-0.0-0.18","690","","f","","","","","","","","","","","","","key","f","16.66626363636407","581.8181692076126","359.9999921972103","f","true","img/T_ambi40.png","坏人","prac_image_first",""
"","","","","","html-keyboard-response","48","408771","0.0-7.0-0.0-1.18","null","<span style='color:GreenYellow; font-size: 70px;'>正确! </span>","null","","","","","","","","","","","","","","","","","","","","","","","feedback_test"
"","","","","","psychophysics","49","410895","0.0-7.0-0.0-0.19","970","","f","","","","","","","","","","","","","key","f","16.666587301587228","581.8181692076126","359.9999921972103","f","true","img/S_ambi40.png","好人","prac_image_first",""
"","","","","","html-keyboard-response","50","411209","0.0-7.0-0.0-1.19","null","<span style='color:GreenYellow; font-size: 70px;'>正确! </span>","null","","","","","","","","","","","","","","","","","","","","","","","feedback_test"
"","","","","","psychophysics","51","413131","0.0-7.0-0.0-0.20","764","","f","","","","","","","","","","","","","key","f","16.666149122806942","581.8181692076126","359.9999921972103","f","true","img/T_ambi40.png","常人","prac_image_first",""
"","","","","","html-keyboard-response","52","413432","0.0-7.0-0.0-1.20","null","<span style='color:GreenYellow; font-size: 70px;'>正确! </span>","null","","","","","","","","","","","","","","","","","","","","","","","feedback_test"
"","","","","","psychophysics","53","415203","0.0-7.0-0.0-0.21","615","","f","","","","","","","","","","","","","key","f","16.666276190475937","581.8181692076126","359.9999921972103","f","true","img/C_ambi40.png","坏人","prac_image_first",""
"","","","","","html-keyboard-response","54","415522","0.0-7.0-0.0-1.21","null","<span style='color:GreenYellow; font-size: 70px;'>正确! </span>","null","","","","","","","","","","","","","","","","","","","","","","","feedback_test"
"","","","","","psychophysics","55","417484","0.0-7.0-0.0-0.22","807","","j","","","","","","","","","","","","","key","j","16.666965517241525","581.8181692076126","359.9999921972103","j","true","img/C_ambi40.png","常人","prac_image_first",""
"","","","","","html-keyboard-response","56","417797","0.0-7.0-0.0-1.22","null","<span style='color:GreenYellow; font-size: 70px;'>正确! </span>","null","","","","","","","","","","","","","","","","","","","","","","","feedback_test"
"","","","","","psychophysics","57","419496","0.0-7.0-0.0-0.23","546","","j","","","","","","","","","","","","","key","j","16.666831683168088","581.8181692076126","359.9999921972103","j","true","img/T_ambi40.png","好人","prac_image_first",""
"","","","","","html-keyboard-response","58","419821","0.0-7.0-0.0-1.23","null","<span style='color:GreenYellow; font-size: 70px;'>正确! </span>","null","","","","","","","","","","","","","","","","","","","","","","","feedback_test"
"","","","","","html-keyboard-response","59","425594","0.0-8.0","5772","<style>.context{color:white; font-size: 35px; line-height:40px}</style>                              <div><p class='context'>您正确回答了79% 的试次。</p><p class='context'>您的平均反应时为846毫秒。</p><p class='context'>恭喜您完成这一阶段的练习。按任意键进入<span style='color: yellow;'>先文字后图形条件</span>的练习。</p></div>"," ","","","","","","","","","","","","","","","","","","","","","","",""
"","","","","","psychophysics","60","428278","0.0-9.0-0.0-0.0","null","","null","","","","","","","","","","","","","key","null","16.668081761006142","581.8181692076126","359.9999921972103","f","false","img/S_ambi40.png","常人","prac_word_first",""
"","","","","","html-keyboard-response","61","428585","0.0-9.0-0.0-1.0","null","<span class='add_' style='color:yellow; font-size: 70px;'> 太慢! </span>","null","","","","","","","","","","","","","","","","","","","","","","","feedback_test"
"","","","","","psychophysics","62","430929","0.0-9.0-0.0-0.1","1184","","f","","","","","","","","","","","","","key","f","16.666467625899458","581.8181692076126","359.9999921972103","f","true","img/C_ambi40.png","好人","prac_word_first",""
"","","","","","html-keyboard-response","63","431251","0.0-9.0-0.0-1.1","null","<span style='color:GreenYellow; font-size: 70px;'>正确! </span>","null","","","","","","","","","","","","","","","","","","","","","","","feedback_test"
"","","","","","psychophysics","64","433339","0.0-9.0-0.0-0.2","923","","f","","","","","","","","","","","","","key","f","16.66591935483842","581.8181692076126","359.9999921972103","f","true","img/T_ambi40.png","坏人","prac_word_first",""
"","","","","","html-keyboard-response","65","433649","0.0-9.0-0.0-1.2","null","<span style='color:GreenYellow; font-size: 70px;'>正确! </span>","null","","","","","","","","","","","","","","","","","","","","","","","feedback_test"
"","","","","","psychophysics","66","435497","0.0-9.0-0.0-0.3","684","","j","","","","","","","","","","","","","key","j","16.666376146789077","581.8181692076126","359.9999921972103","j","true","img/T_ambi40.png","好人","prac_word_first",""
"","","","","","html-keyboard-response","67","435820","0.0-9.0-0.0-1.3","null","<span style='color:GreenYellow; font-size: 70px;'>正确! </span>","null","","","","","","","","","","","","","","","","","","","","","","","feedback_test"
"","","","","","psychophysics","68","437974","0.0-9.0-0.0-0.4","1001","","j","","","","","","","","","","","","","key","j","16.666781249999985","581.8181692076126","359.9999921972103","j","true","img/S_ambi40.png","坏人","prac_word_first",""
"","","","","","html-keyboard-response","69","438298","0.0-9.0-0.0-1.4","null","<span style='color:GreenYellow; font-size: 70px;'>正确! </span>","null","","","","","","","","","","","","","","","","","","","","","","","feedback_test"
"","","","","","psychophysics","70","440187","0.0-9.0-0.0-0.5","738","","f","","","","","","","","","","","","","key","f","16.66715178571446","581.8181692076126","359.9999921972103","f","true","img/T_ambi40.png","常人","prac_word_first",""
"","","","","","html-keyboard-response","71","440499","0.0-9.0-0.0-1.5","null","<span style='color:GreenYellow; font-size: 70px;'>正确! </span>","null","","","","","","","","","","","","","","","","","","","","","","","feedback_test"
"","","","","","psychophysics","72","443078","0.0-9.0-0.0-0.6","1428","","f","","","","","","","","","","","","","key","f","16.666313725490173","581.8181692076126","359.9999921972103","f","true","img/S_ambi40.png","好人","prac_word_first",""
"","","","","","html-keyboard-response","73","443382","0.0-9.0-0.0-1.6","null","<span style='color:GreenYellow; font-size: 70px;'>正确! </span>","null","","","","","","","","","","","","","","","","","","","","","","","feedback_test"
"","","","","","psychophysics","74","445257","0.0-9.0-0.0-0.7","715","","j","","","","","","","","","","","","","key","j","16.667207207207188","581.8181692076126","359.9999921972103","j","true","img/C_ambi40.png","常人","prac_word_first",""
"","","","","","html-keyboard-response","75","445581","0.0-9.0-0.0-1.7","null","<span style='color:GreenYellow; font-size: 70px;'>正确! </span>","null","","","","","","","","","","","","","","","","","","","","","","","feedback_test"
"","","","","","psychophysics","76","447809","0.0-9.0-0.0-0.8","1077","","f","","","","","","","","","","","","","key","f","16.666651515151237","581.8181692076126","359.9999921972103","f","true","img/C_ambi40.png","坏人","prac_word_first",""
"","","","","","html-keyboard-response","77","448127","0.0-9.0-0.0-1.8","null","<span style='color:GreenYellow; font-size: 70px;'>正确! </span>","null","","","","","","","","","","","","","","","","","","","","","","","feedback_test"
"","","","","","psychophysics","78","450158","0.0-9.0-0.0-0.9","876","","j","","","","","","","","","","","","","key","j","16.666148760330515","581.8181692076126","359.9999921972103","j","true","img/S_ambi40.png","坏人","prac_word_first",""
"","","","","","html-keyboard-response","79","450461","0.0-9.0-0.0-1.9","null","<span style='color:GreenYellow; font-size: 70px;'>正确! </span>","null","","","","","","","","","","","","","","","","","","","","","","","feedback_test"
"","","","","","psychophysics","80","452619","0.0-9.0-0.0-0.10","1004","","j","","","","","","","","","","","","","key","j","16.666883720930617","581.8181692076126","359.9999921972103","j","true","img/T_ambi40.png","好人","prac_word_first",""
"","","","","","html-keyboard-response","81","452931","0.0-9.0-0.0-1.10","null","<span style='color:GreenYellow; font-size: 70px;'>正确! </span>","null","","","","","","","","","","","","","","","","","","","","","","","feedback_test"
"","","","","","psychophysics","82","454967","0.0-9.0-0.0-0.11","885","","j","","","","","","","","","","","","","key","j","16.66747107437989","581.8181692076126","359.9999921972103","j","true","img/C_ambi40.png","常人","prac_word_first",""
"","","","","","html-keyboard-response","83","455277","0.0-9.0-0.0-1.11","null","<span style='color:GreenYellow; font-size: 70px;'>正确! </span>","null","","","","","","","","","","","","","","","","","","","","","","","feedback_test"
"","","","","","psychophysics","84","457002","0.0-9.0-0.0-0.12","570","","j","","","","","","","","","","","","","key","j","16.666450980392185","581.8181692076126","359.9999921972103","j","true","img/C_ambi40.png","常人","prac_word_first",""
"","","","","","html-keyboard-response","85","457311","0.0-9.0-0.0-1.12","null","<span style='color:GreenYellow; font-size: 70px;'>正确! </span>","null","","","","","","","","","","","","","","","","","","","","","","","feedback_test"
"","","","","","psychophysics","86","458895","0.0-9.0-0.0-0.13","431","","j","","","","","","","","","","","","","key","j","16.668031914893444","581.8181692076126","359.9999921972103","j","true","img/C_ambi40.png","常人","prac_word_first",""
"","","","","","html-keyboard-response","87","459210","0.0-9.0-0.0-1.13","null","<span style='color:GreenYellow; font-size: 70px;'>正确! </span>","null","","","","","","","","","","","","","","","","","","","","","","","feedback_test"
"","","","","","psychophysics","88","461052","0.0-9.0-0.0-0.14","688","","j","","","","","","","","","","","","","key","j","16.666709090909517","581.8181692076126","359.9999921972103","j","true","img/T_ambi40.png","好人","prac_word_first",""
"","","","","","html-keyboard-response","89","461371","0.0-9.0-0.0-1.14","null","<span style='color:GreenYellow; font-size: 70px;'>正确! </span>","null","","","","","","","","","","","","","","","","","","","","","","","feedback_test"
"","","","","","psychophysics","90","463016","0.0-9.0-0.0-0.15","491","","j","","","","","","","","","","","","","key","j","16.663989690721717","581.8181692076126","359.9999921972103","j","true","img/T_ambi40.png","好人","prac_word_first",""
"","","","","","html-keyboard-response","91","463337","0.0-9.0-0.0-1.15","null","<span style='color:GreenYellow; font-size: 70px;'>正确! </span>","null","","","","","","","","","","","","","","","","","","","","","","","feedback_test"
"","","","","","psychophysics","92","465099","0.0-9.0-0.0-0.16","597","","f","","","","","","","","","","","","","key","f","16.66667307692338","581.8181692076126","359.9999921972103","f","true","img/S_ambi40.png","好人","prac_word_first",""
"","","","","","html-keyboard-response","93","465406","0.0-9.0-0.0-1.16","null","<span style='color:GreenYellow; font-size: 70px;'>正确! </span>","null","","","","","","","","","","","","","","","","","","","","","","","feedback_test"
"","","","","","psychophysics","94","467612","0.0-9.0-0.0-0.17","1044","","f","","","","","","","","","","","","","key","f","16.666129770992193","581.8181692076126","359.9999921972103","f","true","img/C_ambi40.png","好人","prac_word_first",""
"","","","","","html-keyboard-response","95","467919","0.0-9.0-0.0-1.17","null","<span style='color:GreenYellow; font-size: 70px;'>正确! </span>","null","","","","","","","","","","","","","","","","","","","","","","","feedback_test"
"","","","","","psychophysics","96","469862","0.0-9.0-0.0-0.18","792","","j","","","","","","","","","","","","","key","j","16.66487068965517","581.8181692076126","359.9999921972103","j","true","img/S_ambi40.png","坏人","prac_word_first",""
"","","","","","html-keyboard-response","97","470172","0.0-9.0-0.0-1.18","null","<span style='color:GreenYellow; font-size: 70px;'>正确! </span>","null","","","","","","","","","","","","","","","","","","","","","","","feedback_test"
"","","","","","psychophysics","98","472049","0.0-9.0-0.0-0.19","718","","f","","","","","","","","","","","","","key","f","16.666774774774666","581.8181692076126","359.9999921972103","f","true","img/C_ambi40.png","坏人","prac_word_first",""
"","","","","","html-keyboard-response","99","472360","0.0-9.0-0.0-1.19","null","<span style='color:GreenYellow; font-size: 70px;'>正确! </span>","null","","","","","","","","","","","","","","","","","","","","","","","feedback_test"
"","","","","","psychophysics","100","474221","0.0-9.0-0.0-0.20","705","","j","","","","","","","","","","","","","key","j","16.667621621621883","581.8181692076126","359.9999921972103","f","false","img/T_ambi40.png","常人","prac_word_first",""
"","","","","","html-keyboard-response","101","474535","0.0-9.0-0.0-1.20","null","<span style='color:red; font-size: 70px;'>错误! </span>","null","","","","","","","","","","","","","","","","","","","","","","","feedback_test"
"","","","","","psychophysics","102","476638","0.0-9.0-0.0-0.21","952","","f","","","","","","","","","","","","","key","f","16.666527999999932","581.8181692076126","359.9999921972103","f","true","img/S_ambi40.png","常人","prac_word_first",""
"","","","","","html-keyboard-response","103","476951","0.0-9.0-0.0-1.21","null","<span style='color:GreenYellow; font-size: 70px;'>正确! </span>","null","","","","","","","","","","","","","","","","","","","","","","","feedback_test"
"","","","","","psychophysics","104","479425","0.0-9.0-0.0-0.22","1308","","j","","","","","","","","","","","","","key","j","16.66661904761916","581.8181692076126","359.9999921972103","j","true","img/S_ambi40.png","坏人","prac_word_first",""
"","","","","","html-keyboard-response","105","479741","0.0-9.0-0.0-1.22","null","<span style='color:GreenYellow; font-size: 70px;'>正确! </span>","null","","","","","","","","","","","","","","","","","","","","","","","feedback_test"
"","","","","","psychophysics","106","481629","0.0-9.0-0.0-0.23","737","","j","","","","","","","","","","","","","key","j","16.66613392857107","581.8181692076126","359.9999921972103","f","false","img/T_ambi40.png","坏人","prac_word_first",""
"","","","","","html-keyboard-response","107","481937","0.0-9.0-0.0-1.23","null","<span style='color:red; font-size: 70px;'>错误! </span>","null","","","","","","","","","","","","","","","","","","","","","","","feedback_test"
"","","","","","html-keyboard-response","108","487405","0.0-10.0","5466","<style>.context{color:white; font-size: 35px; line-height:40px}</style>                              <div><p class='context'>您正确回答了88% 的试次。</p><p class='context'>您的平均反应时为862毫秒。</p><p class='context'>恭喜您完成练习。按任意键进入<span style='color: yellow;'>图形和文字同时呈现条件</span>的练习。</p></div>"," ","","","","","","","","","","","","","","","","","","","","","","",""
"","","","","","psychophysics","109","489917","0.0-11.0-0.0-0.0","null","","null","","","","","","","","","","","","","key","null","16.665946308724994","581.8181692076126","359.9999921972103","j","false","img/C_ambi40.png","常人","prac_simultaneous",""
"","","","","","html-keyboard-response","110","490231","0.0-11.0-0.0-1.0","null","<span class='add_' style='color:yellow; font-size: 70px;'> 太慢! </span>","null","","","","","","","","","","","","","","","","","","","","","","","feedback_test"
"","","","","","psychophysics","111","492207","0.0-11.0-0.0-0.1","968","","j","","","","","","","","","","","","","key","j","16.666245762711604","581.8181692076126","359.9999921972103","j","true","img/S_ambi40.png","坏人","prac_simultaneous",""
"","","","","","html-keyboard-response","112","492522","0.0-11.0-0.0-1.1","null","<span style='color:GreenYellow; font-size: 70px;'>正确! </span>","null","","","","","","","","","","","","","","","","","","","","","","","feedback_test"
"","","","","","psychophysics","113","494617","0.0-11.0-0.0-0.2","1092","","f","","","","","","","","","","","","","key","f","16.665879032257738","581.8181692076126","359.9999921972103","j","false","img/T_ambi40.png","好人","prac_simultaneous",""
"","","","","","html-keyboard-response","114","494926","0.0-11.0-0.0-1.2","null","<span style='color:red; font-size: 70px;'>错误! </span>","null","","","","","","","","","","","","","","","","","","","","","","","feedback_test"
"","","","","","psychophysics","115","496904","0.0-11.0-0.0-0.3","972","","j","","","","","","","","","","","","","key","j","16.66677777777808","581.8181692076126","359.9999921972103","j","true","img/C_ambi40.png","常人","prac_simultaneous",""
"","","","","","html-keyboard-response","116","497230","0.0-11.0-0.0-1.3","null","<span style='color:GreenYellow; font-size: 70px;'>正确! </span>","null","","","","","","","","","","","","","","","","","","","","","","","feedback_test"
"","","","","","psychophysics","117","499186","0.0-11.0-0.0-0.4","948","","f","","","","","","","","","","","","","key","f","16.66643965517217","581.8181692076126","359.9999921972103","f","true","img/C_ambi40.png","坏人","prac_simultaneous",""
"","","","","","html-keyboard-response","118","499501","0.0-11.0-0.0-1.4","null","<span style='color:GreenYellow; font-size: 70px;'>正确! </span>","null","","","","","","","","","","","","","","","","","","","","","","","feedback_test"
"","","","","","psychophysics","119","501311","0.0-11.0-0.0-0.5","805","","j","","","","","","","","","","","","","key","j","16.666555555555668","581.8181692076126","359.9999921972103","j","true","img/T_ambi40.png","好人","prac_simultaneous",""
"","","","","","html-keyboard-response","120","501620","0.0-11.0-0.0-1.5","null","<span style='color:GreenYellow; font-size: 70px;'>正确! </span>","null","","","","","","","","","","","","","","","","","","","","","","","feedback_test"
"","","","","","psychophysics","121","503768","0.0-11.0-0.0-0.6","1146","","f","","","","","","","","","","","","","key","f","16.65277777777778","581.8181692076126","359.9999921972103","f","true","img/C_ambi40.png","好人","prac_simultaneous",""
"","","","","","html-keyboard-response","122","504090","0.0-11.0-0.0-1.6","null","<span style='color:GreenYellow; font-size: 70px;'>正确! </span>","null","","","","","","","","","","","","","","","","","","","","","","","feedback_test"
"","","","","","psychophysics","123","506229","0.0-11.0-0.0-0.7","1136","","f","","","","","","","","","","","","","key","f","16.66577165354342","581.8181692076126","359.9999921972103","f","true","img/S_ambi40.png","好人","prac_simultaneous",""
"","","","","","html-keyboard-response","124","506540","0.0-11.0-0.0-1.7","null","<span style='color:GreenYellow; font-size: 70px;'>正确! </span>","null","","","","","","","","","","","","","","","","","","","","","","","feedback_test"
"","","","","","psychophysics","125","508477","0.0-11.0-0.0-0.8","928","","f","","","","","","","","","","","","","key","f","16.66638260869532","581.8181692076126","359.9999921972103","f","true","img/S_ambi40.png","常人","prac_simultaneous",""
"","","","","","html-keyboard-response","126","508790","0.0-11.0-0.0-1.8","null","<span style='color:GreenYellow; font-size: 70px;'>正确! </span>","null","","","","","","","","","","","","","","","","","","","","","","","feedback_test"
"","","","","","psychophysics","127","510906","0.0-11.0-0.0-0.9","1108","","j","","","","","","","","","","","","","key","j","16.66659523809508","581.8181692076126","359.9999921972103","j","true","img/S_ambi40.png","坏人","prac_simultaneous",""
"","","","","","html-keyboard-response","128","511221","0.0-11.0-0.0-1.9","null","<span style='color:GreenYellow; font-size: 70px;'>正确! </span>","null","","","","","","","","","","","","","","","","","","","","","","","feedback_test"
"","","","","","psychophysics","129","513028","0.0-11.0-0.0-0.10","805","","f","","","","","","","","","","","","","key","f","16.666439252336527","581.8181692076126","359.9999921972103","f","true","img/T_ambi40.png","常人","prac_simultaneous",""
"","","","","","html-keyboard-response","130","513331","0.0-11.0-0.0-1.10","null","<span style='color:GreenYellow; font-size: 70px;'>正确! </span>","null","","","","","","","","","","","","","","","","","","","","","","","feedback_test"
"","","","","","psychophysics","131","515465","0.0-11.0-0.0-0.11","1124","","f","","","","","","","","","","","","","key","f","16.66685826771647","581.8181692076126","359.9999921972103","f","true","img/T_ambi40.png","坏人","prac_simultaneous",""
"","","","","","html-keyboard-response","132","515777","0.0-11.0-0.0-1.11","null","<span style='color:GreenYellow; font-size: 70px;'>正确! </span>","null","","","","","","","","","","","","","","","","","","","","","","","feedback_test"
"","","","","","psychophysics","133","517642","0.0-11.0-0.0-0.12","861","","j","","","","","","","","","","","","","key","j","16.66625454545455","581.8181692076126","359.9999921972103","j","true","img/C_ambi40.png","常人","prac_simultaneous",""
"","","","","","html-keyboard-response","134","517951","0.0-11.0-0.0-1.12","null","<span style='color:GreenYellow; font-size: 70px;'>正确! </span>","null","","","","","","","","","","","","","","","","","","","","","","","feedback_test"
"","","","","","psychophysics","135","520306","0.0-11.0-0.0-0.13","1347","","j","","","","","","","","","","","","","key","j","16.666142857142923","581.8181692076126","359.9999921972103","f","false","img/T_ambi40.png","坏人","prac_simultaneous",""
"","","","","","html-keyboard-response","136","520626","0.0-11.0-0.0-1.13","null","<span style='color:red; font-size: 70px;'>错误! </span>","null","","","","","","","","","","","","","","","","","","","","","","","feedback_test"
"","","","","","psychophysics","137","522536","0.0-11.0-0.0-0.14","907","","f","","","","","","","","","","","","","key","f","16.66850442477848","581.8181692076126","359.9999921972103","f","true","img/S_ambi40.png","常人","prac_simultaneous",""
"","","","","","html-keyboard-response","138","522845","0.0-11.0-0.0-1.14","null","<span style='color:GreenYellow; font-size: 70px;'>正确! </span>","null","","","","","","","","","","","","","","","","","","","","","","","feedback_test"
"","","","","","psychophysics","139","524968","0.0-11.0-0.0-0.15","1113","","j","","","","","","","","","","","","","key","j","16.6668492063491","581.8181692076126","359.9999921972103","j","true","img/S_ambi40.png","坏人","prac_simultaneous",""
"","","","","","html-keyboard-response","140","525291","0.0-11.0-0.0-1.15","null","<span style='color:GreenYellow; font-size: 70px;'>正确! </span>","null","","","","","","","","","","","","","","","","","","","","","","","feedback_test"
"","","","","","psychophysics","141","527327","0.0-11.0-0.0-0.16","1035","","j","","","","","","","","","","","","","key","j","16.650173553718783","581.8181692076126","359.9999921972103","f","false","img/C_ambi40.png","好人","prac_simultaneous",""
"","","","","","html-keyboard-response","142","527631","0.0-11.0-0.0-1.16","null","<span style='color:red; font-size: 70px;'>错误! </span>","null","","","","","","","","","","","","","","","","","","","","","","","feedback_test"
"","","","","","psychophysics","143","529731","0.0-11.0-0.0-0.17","1089","","j","","","","","","","","","","","","","key","j","16.66655200000014","581.8181692076126","359.9999921972103","j","true","img/S_ambi40.png","坏人","prac_simultaneous",""
"","","","","","html-keyboard-response","144","530042","0.0-11.0-0.0-1.17","null","<span style='color:GreenYellow; font-size: 70px;'>正确! </span>","null","","","","","","","","","","","","","","","","","","","","","","","feedback_test"
"","","","","","psychophysics","145","531764","0.0-11.0-0.0-0.18","720","","j","","","","","","","","","","","","","key","j","16.66647058823511","581.8181692076126","359.9999921972103","j","true","img/T_ambi40.png","好人","prac_simultaneous",""
"","","","","","html-keyboard-response","146","532070","0.0-11.0-0.0-1.18","null","<span style='color:GreenYellow; font-size: 70px;'>正确! </span>","null","","","","","","","","","","","","","","","","","","","","","","","feedback_test"
"","","","","","psychophysics","147","533764","0.0-11.0-0.0-0.19","688","","j","","","","","","","","","","","","","key","j","16.670287128713092","581.8181692076126","359.9999921972103","j","true","img/C_ambi40.png","常人","prac_simultaneous",""
"","","","","","html-keyboard-response","148","534072","0.0-11.0-0.0-1.19","null","<span style='color:GreenYellow; font-size: 70px;'>正确! </span>","null","","","","","","","","","","","","","","","","","","","","","","","feedback_test"
"","","","","","psychophysics","149","536216","0.0-11.0-0.0-0.20","1141","","f","","","","","","","","","","","","","key","f","16.666859375000058","581.8181692076126","359.9999921972103","f","true","img/T_ambi40.png","常人","prac_simultaneous",""
"","","","","","html-keyboard-response","150","536531","0.0-11.0-0.0-1.20","null","<span style='color:GreenYellow; font-size: 70px;'>正确! </span>","null","","","","","","","","","","","","","","","","","","","","","","","feedback_test"
"","","","","","psychophysics","151","538377","0.0-11.0-0.0-0.21","844","","j","","","","","","","","","","","","","key","j","16.666054545455104","581.8181692076126","359.9999921972103","j","true","img/T_ambi40.png","好人","prac_simultaneous",""
"","","","","","html-keyboard-response","152","538696","0.0-11.0-0.0-1.21","null","<span style='color:GreenYellow; font-size: 70px;'>正确! </span>","null","","","","","","","","","","","","","","","","","","","","","","","feedback_test"
"","","","","","psychophysics","153","540593","0.0-11.0-0.0-0.22","892","","f","","","","","","","","","","","","","key","f","16.66838392857088","581.8181692076126","359.9999921972103","f","true","img/S_ambi40.png","好人","prac_simultaneous",""
"","","","","","html-keyboard-response","154","540910","0.0-11.0-0.0-1.22","null","<span style='color:GreenYellow; font-size: 70px;'>正确! </span>","null","","","","","","","","","","","","","","","","","","","","","","","feedback_test"
"","","","","","psychophysics","155","543430","0.0-11.0-0.0-0.23","null","","null","","","","","","","","","","","","","key","null","16.666573333333556","581.8181692076126","359.9999921972103","f","false","img/C_ambi40.png","坏人","prac_simultaneous",""
"","","","","","html-keyboard-response","156","543748","0.0-11.0-0.0-1.23","null","<span class='add_' style='color:yellow; font-size: 70px;'> 太慢! </span>","null","","","","","","","","","","","","","","","","","","","","","","","feedback_test"
"","","","","","html-keyboard-response","157","550511","0.0-12.0","6758","<style>.context{color:white; font-size: 35px; line-height:40px}</style>                              <div><p class='context'>您正确回答了79% 的试次。</p><p class='context'>您的平均反应时为958毫秒。</p><p class='context'>恭喜您完成练习。按任意键进入正式实验。</p><p class='footer' style='font-size: 35px; line-height:40px;'>请在进入正式实验实验之前将您的<span style='color: lightgreen;'>食指</span>放在电脑键盘的相应键位上进行按键。</p>"," ","","","","","","","","","","","","","","","","","","","","","","",""
"","","","","","html-keyboard-response","158","556899","0.0-13.0-2.0-0.0","6378","
      <p>请您将手指放在按键上，准备进入呈现顺序为<span style='color: yellow;'>图形和文字同时呈现条件</span>的正式匹配任务</p>
      <p> <div style = ""color: green""><按任意键进入下一阶段的匹配任务></div></p>
      "," ","","","","","","","","","","","","","","","","","","","","","","",""
"","","","","","psychophysics","159","559131","0.0-13.0-2.0-1.0-0.0-0.0","1231","","f","","","","","","","","","","","","","key","f","16.66657142857128","581.8181692076126","359.9999921972103","f","true","img/S_ambi40.png","好人","simultaneous",""
"","","","","","html-keyboard-response","160","559450","0.0-13.0-2.0-1.0-0.0-1.0","null","<span style='color:GreenYellow; font-size: 70px;'>正确! </span>","null","","","","","","","","","","","","","","","","","","","","","","","feedback_test"
"","","","","","psychophysics","161","561310","0.0-13.0-2.0-1.0-0.0-0.1","852","","j","","","","","","","","","","","","","key","j","16.666837837837576","581.8181692076126","359.9999921972103","j","true","img/C_ambi40.png","常人","simultaneous",""
"","","","","","html-keyboard-response","162","561614","0.0-13.0-2.0-1.0-0.0-1.1","null","<span style='color:GreenYellow; font-size: 70px;'>正确! </span>","null","","","","","","","","","","","","","","","","","","","","","","","feedback_test"
"","","","","","psychophysics","163","563661","0.0-13.0-2.0-1.0-0.0-0.2","1039","","f","","","","","","","","","","","","","key","f","16.667122950819397","581.8181692076126","359.9999921972103","f","true","img/T_ambi40.png","常人","simultaneous",""
"","","","","","html-keyboard-response","164","563977","0.0-13.0-2.0-1.0-0.0-1.2","null","<span style='color:GreenYellow; font-size: 70px;'>正确! </span>","null","","","","","","","","","","","","","","","","","","","","","","","feedback_test"
"","","","","","psychophysics","165","565695","0.0-13.0-2.0-1.0-0.0-0.3","715","","j","","","","","","","","","","","","","key","j","16.667235294117262","581.8181692076126","359.9999921972103","j","true","img/T_ambi40.png","好人","simultaneous",""
"","","","","","html-keyboard-response","166","566006","0.0-13.0-2.0-1.0-0.0-1.3","null","<span style='color:GreenYellow; font-size: 70px;'>正确! </span>","null","","","","","","","","","","","","","","","","","","","","","","","feedback_test"
"","","","","","psychophysics","167","568214","0.0-13.0-2.0-1.0-0.0-0.4","1206","","j","","","","","","","","","","","","","key","j","16.621358778626295","581.8181692076126","359.9999921972103","j","true","img/S_ambi40.png","坏人","simultaneous",""
"","","","","","html-keyboard-response","168","568526","0.0-13.0-2.0-1.0-0.0-1.4","null","<span style='color:GreenYellow; font-size: 70px;'>正确! </span>","null","","","","","","","","","","","","","","","","","","","","","","","feedback_test"
"","","","","","psychophysics","169","570273","0.0-13.0-2.0-1.0-0.0-0.5","736","","f","","","","","","","","","","","","","key","f","16.666174757281926","581.8181692076126","359.9999921972103","j","false","img/C_ambi40.png","常人","simultaneous",""
"","","","","","html-keyboard-response","170","570583","0.0-13.0-2.0-1.0-0.0-1.5","null","<span style='color:red; font-size: 70px;'>错误! </span>","null","","","","","","","","","","","","","","","","","","","","","","","feedback_test"
"","","","","","psychophysics","171","572559","0.0-13.0-2.0-1.0-0.0-0.6","963","","f","","","","","","","","","","","","","key","f","16.667641025640542","581.8181692076126","359.9999921972103","f","true","img/T_ambi40.png","坏人","simultaneous",""
"","","","","","html-keyboard-response","172","572870","0.0-13.0-2.0-1.0-0.0-1.6","null","<span style='color:GreenYellow; font-size: 70px;'>正确! </span>","null","","","","","","","","","","","","","","","","","","","","","","","feedback_test"
"","","","","","psychophysics","173","574829","0.0-13.0-2.0-1.0-0.0-0.7","950","","f","","","","","","","","","","","","","key","f","16.666456896551797","581.8181692076126","359.9999921972103","f","true","img/C_ambi40.png","好人","simultaneous",""
"","","","","","html-keyboard-response","174","575132","0.0-13.0-2.0-1.0-0.0-1.7","null","<span style='color:GreenYellow; font-size: 70px;'>正确! </span>","null","","","","","","","","","","","","","","","","","","","","","","","feedback_test"
"","","","","","psychophysics","175","577200","0.0-13.0-2.0-1.0-0.0-0.8","1059","","f","","","","","","","","","","","","","key","f","16.666609756097696","581.8181692076126","359.9999921972103","f","true","img/C_ambi40.png","坏人","simultaneous",""
"","","","","","html-keyboard-response","176","577521","0.0-13.0-2.0-1.0-0.0-1.8","null","<span style='color:GreenYellow; font-size: 70px;'>正确! </span>","null","","","","","","","","","","","","","","","","","","","","","","","feedback_test"
"","","","","","psychophysics","177","580043","0.0-13.0-2.0-1.0-0.0-0.9","1516","","f","","","","","","","","","","","","","key","f","16.6679866666665","581.8181692076126","359.9999921972103","f","true","img/S_ambi40.png","常人","simultaneous",""
"","","","","","html-keyboard-response","178","580354","0.0-13.0-2.0-1.0-0.0-1.9","null","<span class='add_' style='color:yellow; font-size: 70px;'> 太慢! </span>","null","","","","","","","","","","","","","","","","","","","","","","","feedback_test"
"","","","","","psychophysics","179","582022","0.0-13.0-2.0-1.0-0.0-0.10","661","","j","","","","","","","","","","","","","key","j","16.667787878787042","581.8181692076126","359.9999921972103","j","true","img/T_ambi40.png","好人","simultaneous",""
"","","","","","html-keyboard-response","180","582328","0.0-13.0-2.0-1.0-0.0-1.10","null","<span style='color:GreenYellow; font-size: 70px;'>正确! </span>","null","","","","","","","","","","","","","","","","","","","","","","","feedback_test"
"","","","","","psychophysics","181","584449","0.0-13.0-2.0-1.0-0.0-0.11","1119","","j","","","","","","","","","","","","","key","j","16.644460317459778","581.8181692076126","359.9999921972103","j","true","img/S_ambi40.png","坏人","simultaneous",""
"","","","","","html-keyboard-response","182","584771","0.0-13.0-2.0-1.0-0.0-1.11","null","<span style='color:GreenYellow; font-size: 70px;'>正确! </span>","null","","","","","","","","","","","","","","","","","","","","","","","feedback_test"
"","","","","","psychophysics","183","586663","0.0-13.0-2.0-1.0-0.0-0.12","879","","f","","","","","","","","","","","","","key","f","16.66663392857195","581.8181692076126","359.9999921972103","f","true","img/C_ambi40.png","坏人","simultaneous",""
"","","","","","html-keyboard-response","184","586981","0.0-13.0-2.0-1.0-0.0-1.12","null","<span style='color:GreenYellow; font-size: 70px;'>正确! </span>","null","","","","","","","","","","","","","","","","","","","","","","","feedback_test"
"","","","","","psychophysics","185","588738","0.0-13.0-2.0-1.0-0.0-0.13","755","","j","","","","","","","","","","","","","key","j","16.518509615385064","581.8181692076126","359.9999921972103","j","true","img/S_ambi40.png","坏人","simultaneous",""
"","","","","","html-keyboard-response","186","589050","0.0-13.0-2.0-1.0-0.0-1.13","null","<span style='color:GreenYellow; font-size: 70px;'>正确! </span>","null","","","","","","","","","","","","","","","","","","","","","","","feedback_test"
"","","","","","psychophysics","187","591205","0.0-13.0-2.0-1.0-0.0-0.14","1153","","f","","","","","","","","","","","","","key","f","16.666359374999956","581.8181692076126","359.9999921972103","f","true","img/C_ambi40.png","好人","simultaneous",""
"","","","","","html-keyboard-response","188","591521","0.0-13.0-2.0-1.0-0.0-1.14","null","<span style='color:GreenYellow; font-size: 70px;'>正确! </span>","null","","","","","","","","","","","","","","","","","","","","","","","feedback_test"
"","","","","","psychophysics","189","593454","0.0-13.0-2.0-1.0-0.0-0.15","924","","f","","","","","","","","","","","","","key","f","16.66633913043441","581.8181692076126","359.9999921972103","f","true","img/S_ambi40.png","常人","simultaneous",""
"","","","","","html-keyboard-response","190","593762","0.0-13.0-2.0-1.0-0.0-1.15","null","<span style='color:GreenYellow; font-size: 70px;'>正确! </span>","null","","","","","","","","","","","","","","","","","","","","","","","feedback_test"
"","","","","","psychophysics","191","595680","0.0-13.0-2.0-1.0-0.0-0.16","913","","f","","","","","","","","","","","","","key","f","16.667175438596146","581.8181692076126","359.9999921972103","f","true","img/T_ambi40.png","常人","simultaneous",""
"","","","","","html-keyboard-response","192","595982","0.0-13.0-2.0-1.0-0.0-1.16","null","<span style='color:GreenYellow; font-size: 70px;'>正确! </span>","null","","","","","","","","","","","","","","","","","","","","","","","feedback_test"
"","","","","","psychophysics","193","598204","0.0-13.0-2.0-1.0-0.0-0.17","1221","","j","","","","","","","","","","","","","key","j","16.666628787878754","581.8181692076126","359.9999921972103","j","true","img/C_ambi40.png","常人","simultaneous",""
"","","","","","html-keyboard-response","194","598511","0.0-13.0-2.0-1.0-0.0-1.17","null","<span style='color:GreenYellow; font-size: 70px;'>正确! </span>","null","","","","","","","","","","","","","","","","","","","","","","","feedback_test"
"","","","","","psychophysics","195","600143","0.0-13.0-2.0-1.0-0.0-0.18","626","","j","","","","","","","","","","","","","key","j","16.666319587629182","581.8181692076126","359.9999921972103","j","true","img/C_ambi40.png","常人","simultaneous",""
"","","","","","html-keyboard-response","196","600461","0.0-13.0-2.0-1.0-0.0-1.18","null","<span style='color:GreenYellow; font-size: 70px;'>正确! </span>","null","","","","","","","","","","","","","","","","","","","","","","","feedback_test"
"","","","","","psychophysics","197","602248","0.0-13.0-2.0-1.0-0.0-0.19","778","","j","","","","","","","","","","","","","key","j","16.82505714285653","581.8181692076126","359.9999921972103","j","true","img/T_ambi40.png","好人","simultaneous",""
"","","","","","html-keyboard-response","198","602561","0.0-13.0-2.0-1.0-0.0-1.19","null","<span style='color:GreenYellow; font-size: 70px;'>正确! </span>","null","","","","","","","","","","","","","","","","","","","","","","","feedback_test"
"","","","","","psychophysics","199","604057","0.0-13.0-2.0-1.0-0.0-0.20","483","","j","","","","","","","","","","","","","key","j","16.666886363636216","581.8181692076126","359.9999921972103","j","true","img/T_ambi40.png","好人","simultaneous",""
"","","","","","html-keyboard-response","200","604371","0.0-13.0-2.0-1.0-0.0-1.20","null","<span style='color:GreenYellow; font-size: 70px;'>正确! </span>","null","","","","","","","","","","","","","","","","","","","","","","","feedback_test"
"","","","","","psychophysics","201","606183","0.0-13.0-2.0-1.0-0.0-0.21","809","","f","","","","","","","","","","","","","key","f","16.666666666666668","581.8181692076126","359.9999921972103","f","true","img/S_ambi40.png","好人","simultaneous",""
"","","","","","html-keyboard-response","202","606501","0.0-13.0-2.0-1.0-0.0-1.21","null","<span style='color:GreenYellow; font-size: 70px;'>正确! </span>","null","","","","","","","","","","","","","","","","","","","","","","","feedback_test"
"","","","","","psychophysics","203","608304","0.0-13.0-2.0-1.0-0.0-0.22","794","","j","","","","","","","","","","","","","key","j","16.66716822429895","581.8181692076126","359.9999921972103","j","true","img/S_ambi40.png","坏人","simultaneous",""
"","","","","","html-keyboard-response","204","608628","0.0-13.0-2.0-1.0-0.0-1.22","null","<span style='color:GreenYellow; font-size: 70px;'>正确! </span>","null","","","","","","","","","","","","","","","","","","","","","","","feedback_test"
"","","","","","psychophysics","205","610434","0.0-13.0-2.0-1.0-0.0-0.23","804","","f","","","","","","","","","","","","","key","f","16.666168224299327","581.8181692076126","359.9999921972103","f","true","img/T_ambi40.png","坏人","simultaneous",""
"","","","","","html-keyboard-response","206","610751","0.0-13.0-2.0-1.0-0.0-1.23","null","<span style='color:GreenYellow; font-size: 70px;'>正确! </span>","null","","","","","","","","","","","","","","","","","","","","","","","feedback_test"
"","","","","","psychophysics","207","612546","0.0-13.0-2.0-1.0-0.0-0.24","788","","j","","","","","","","","","","","","","key","j","16.665264150942676","581.8181692076126","359.9999921972103","j","true","img/S_ambi40.png","坏人","simultaneous",""
"","","","","","html-keyboard-response","208","612871","0.0-13.0-2.0-1.0-0.0-1.24","null","<span style='color:GreenYellow; font-size: 70px;'>正确! </span>","null","","","","","","","","","","","","","","","","","","","","","","","feedback_test"
"","","","","","psychophysics","209","614701","0.0-13.0-2.0-1.0-0.0-0.25","823","","f","","","","","","","","","","","","","key","f","16.66607339449607","581.8181692076126","359.9999921972103","f","true","img/T_ambi40.png","坏人","simultaneous",""
"","","","","","html-keyboard-response","210","615006","0.0-13.0-2.0-1.0-0.0-1.25","null","<span style='color:GreenYellow; font-size: 70px;'>正确! </span>","null","","","","","","","","","","","","","","","","","","","","","","","feedback_test"
"","","","","","psychophysics","211","616935","0.0-13.0-2.0-1.0-0.0-0.26","919","","f","","","","","","","","","","","","","key","f","16.66578260869618","581.8181692076126","359.9999921972103","f","true","img/T_ambi40.png","常人","simultaneous",""
"","","","","","html-keyboard-response","212","617241","0.0-13.0-2.0-1.0-0.0-1.26","null","<span style='color:GreenYellow; font-size: 70px;'>正确! </span>","null","","","","","","","","","","","","","","","","","","","","","","","feedback_test"
"","","","","","psychophysics","213","619200","0.0-13.0-2.0-1.0-0.0-0.27","950","","f","","","","","","","","","","","","","key","f","16.666301724138663","581.8181692076126","359.9999921972103","f","true","img/S_ambi40.png","常人","simultaneous",""
"","","","","","html-keyboard-response","214","619513","0.0-13.0-2.0-1.0-0.0-1.27","null","<span style='color:GreenYellow; font-size: 70px;'>正确! </span>","null","","","","","","","","","","","","","","","","","","","","","","","feedback_test"
"","","","","","psychophysics","215","621130","0.0-13.0-2.0-1.0-0.0-0.28","614","","j","","","","","","","","","","","","","key","j","16.66710416666683","581.8181692076126","359.9999921972103","j","true","img/T_ambi40.png","好人","simultaneous",""
"","","","","","html-keyboard-response","216","621450","0.0-13.0-2.0-1.0-0.0-1.28","null","<span style='color:GreenYellow; font-size: 70px;'>正确! </span>","null","","","","","","","","","","","","","","","","","","","","","","","feedback_test"
"","","","","","psychophysics","217","623808","0.0-13.0-2.0-1.0-0.0-0.29","1351","","j","","","","","","","","","","","","","key","j","16.666328571428313","581.8181692076126","359.9999921972103","j","true","img/S_ambi40.png","坏人","simultaneous",""
"","","","","","html-keyboard-response","218","624131","0.0-13.0-2.0-1.0-0.0-1.29","null","<span style='color:GreenYellow; font-size: 70px;'>正确! </span>","null","","","","","","","","","","","","","","","","","","","","","","","feedback_test"
"","","","","","psychophysics","219","626304","0.0-13.0-2.0-1.0-0.0-0.30","1171","","f","","","","","","","","","","","","","key","f","16.621234374999403","581.8181692076126","359.9999921972103","f","true","img/C_ambi40.png","好人","simultaneous",""
"","","","","","html-keyboard-response","220","626616","0.0-13.0-2.0-1.0-0.0-1.30","null","<span style='color:GreenYellow; font-size: 70px;'>正确! </span>","null","","","","","","","","","","","","","","","","","","","","","","","feedback_test"
"","","","","","psychophysics","221","628661","0.0-13.0-2.0-1.0-0.0-0.31","1041","","f","","","","","","","","","","","","","key","f","16.66694262295152","581.8181692076126","359.9999921972103","f","true","img/C_ambi40.png","坏人","simultaneous",""
"","","","","","html-keyboard-response","222","628977","0.0-13.0-2.0-1.0-0.0-1.31","null","<span style='color:GreenYellow; font-size: 70px;'>正确! </span>","null","","","","","","","","","","","","","","","","","","","","","","","feedback_test"
"","","","","","psychophysics","223","630813","0.0-13.0-2.0-1.0-0.0-0.32","822","","f","","","","","","","","","","","","","key","f","16.666688073394443","581.8181692076126","359.9999921972103","f","true","img/S_ambi40.png","好人","simultaneous",""
"","","","","","html-keyboard-response","224","631123","0.0-13.0-2.0-1.0-0.0-1.32","null","<span style='color:GreenYellow; font-size: 70px;'>正确! </span>","null","","","","","","","","","","","","","","","","","","","","","","","feedback_test"
"","","","","","psychophysics","225","633224","0.0-13.0-2.0-1.0-0.0-0.33","1099","","j","","","","","","","","","","","","","key","j","16.668024193548085","581.8181692076126","359.9999921972103","j","true","img/C_ambi40.png","常人","simultaneous",""
"","","","","","html-keyboard-response","226","633541","0.0-13.0-2.0-1.0-0.0-1.33","null","<span style='color:GreenYellow; font-size: 70px;'>正确! </span>","null","","","","","","","","","","","","","","","","","","","","","","","feedback_test"
"","","","","","psychophysics","227","635115","0.0-13.0-2.0-1.0-0.0-0.34","566","","j","","","","","","","","","","","","","key","j","16.666247311828066","581.8181692076126","359.9999921972103","j","true","img/T_ambi40.png","好人","simultaneous",""
"","","","","","html-keyboard-response","228","635429","0.0-13.0-2.0-1.0-0.0-1.34","null","<span style='color:GreenYellow; font-size: 70px;'>正确! </span>","null","","","","","","","","","","","","","","","","","","","","","","","feedback_test"
"","","","","","psychophysics","229","637365","0.0-13.0-2.0-1.0-0.0-0.35","925","","j","","","","","","","","","","","","","key","j","16.666530434782214","581.8181692076126","359.9999921972103","j","true","img/C_ambi40.png","常人","simultaneous",""
"","","","","","html-keyboard-response","230","637671","0.0-13.0-2.0-1.0-0.0-1.35","null","<span style='color:GreenYellow; font-size: 70px;'>正确! </span>","null","","","","","","","","","","","","","","","","","","","","","","","feedback_test"
"","","","","","psychophysics","231","639343","0.0-13.0-2.0-1.0-0.0-0.36","669","","j","","","","","","","","","","","","","key","j","16.666969999999274","581.8181692076126","359.9999921972103","j","true","img/T_ambi40.png","好人","simultaneous",""
"","","","","","html-keyboard-response","232","639658","0.0-13.0-2.0-1.0-0.0-1.36","null","<span style='color:GreenYellow; font-size: 70px;'>正确! </span>","null","","","","","","","","","","","","","","","","","","","","","","","feedback_test"
"","","","","","psychophysics","233","641486","0.0-13.0-2.0-1.0-0.0-0.37","827","","f","","","","","","","","","","","","","key","f","16.66659259259231","581.8181692076126","359.9999921972103","f","true","img/T_ambi40.png","坏人","simultaneous",""
"","","","","","html-keyboard-response","234","641802","0.0-13.0-2.0-1.0-0.0-1.37","null","<span style='color:GreenYellow; font-size: 70px;'>正确! </span>","null","","","","","","","","","","","","","","","","","","","","","","","feedback_test"
"","","","","","psychophysics","235","644123","0.0-13.0-2.0-1.0-0.0-0.38","1316","","j","","","","","","","","","","","","","key","j","16.668028985506997","581.8181692076126","359.9999921972103","j","true","img/S_ambi40.png","坏人","simultaneous",""
"","","","","","html-keyboard-response","236","644427","0.0-13.0-2.0-1.0-0.0-1.38","null","<span style='color:GreenYellow; font-size: 70px;'>正确! </span>","null","","","","","","","","","","","","","","","","","","","","","","","feedback_test"
"","","","","","psychophysics","237","646096","0.0-13.0-2.0-1.0-0.0-0.39","667","","f","","","","","","","","","","","","","key","f","16.66689898989944","581.8181692076126","359.9999921972103","f","true","img/S_ambi40.png","好人","simultaneous",""
"","","","","","html-keyboard-response","238","646407","0.0-13.0-2.0-1.0-0.0-1.39","null","<span style='color:GreenYellow; font-size: 70px;'>正确! </span>","null","","","","","","","","","","","","","","","","","","","","","","","feedback_test"
"","","","","","psychophysics","239","648323","0.0-13.0-2.0-1.0-0.0-0.40","899","","f","","","","","","","","","","","","","key","f","16.667176991149955","581.8181692076126","359.9999921972103","f","true","img/S_ambi40.png","常人","simultaneous",""
"","","","","","html-keyboard-response","240","648631","0.0-13.0-2.0-1.0-0.0-1.40","null","<span style='color:GreenYellow; font-size: 70px;'>正确! </span>","null","","","","","","","","","","","","","","","","","","","","","","","feedback_test"
"","","","","","psychophysics","241","650280","0.0-13.0-2.0-1.0-0.0-0.41","639","","j","","","","","","","","","","","","","key","j","16.666857142856685","581.8181692076126","359.9999921972103","j","true","img/T_ambi40.png","好人","simultaneous",""
"","","","","","html-keyboard-response","242","650581","0.0-13.0-2.0-1.0-0.0-1.41","null","<span style='color:GreenYellow; font-size: 70px;'>正确! </span>","null","","","","","","","","","","","","","","","","","","","","","","","feedback_test"
"","","","","","psychophysics","243","652232","0.0-13.0-2.0-1.0-0.0-0.42","641","","j","","","","","","","","","","","","","key","j","16.66739795918396","581.8181692076126","359.9999921972103","j","true","img/C_ambi40.png","常人","simultaneous",""
"","","","","","html-keyboard-response","244","652541","0.0-13.0-2.0-1.0-0.0-1.42","null","<span style='color:GreenYellow; font-size: 70px;'>正确! </span>","null","","","","","","","","","","","","","","","","","","","","","","","feedback_test"
"","","","","","psychophysics","245","654147","0.0-13.0-2.0-1.0-0.0-0.43","591","","j","","","","","","","","","","","","","key","j","16.666999999999902","581.8181692076126","359.9999921972103","j","true","img/S_ambi40.png","坏人","simultaneous",""
"","","","","","html-keyboard-response","246","654457","0.0-13.0-2.0-1.0-0.0-1.43","null","<span style='color:GreenYellow; font-size: 70px;'>正确! </span>","null","","","","","","","","","","","","","","","","","","","","","","","feedback_test"
"","","","","","psychophysics","247","656283","0.0-13.0-2.0-1.0-0.0-0.44","825","","f","","","","","","","","","","","","","key","f","16.66640740740695","581.8181692076126","359.9999921972103","f","true","img/T_ambi40.png","常人","simultaneous",""
"","","","","","html-keyboard-response","248","656591","0.0-13.0-2.0-1.0-0.0-1.44","null","<span style='color:GreenYellow; font-size: 70px;'>正确! </span>","null","","","","","","","","","","","","","","","","","","","","","","","feedback_test"
"","","","","","psychophysics","249","658485","0.0-13.0-2.0-1.0-0.0-0.45","890","","j","","","","","","","","","","","","","key","j","16.703920353981832","581.8181692076126","359.9999921972103","j","true","img/C_ambi40.png","常人","simultaneous",""
"","","","","","html-keyboard-response","250","658801","0.0-13.0-2.0-1.0-0.0-1.45","null","<span style='color:GreenYellow; font-size: 70px;'>正确! </span>","null","","","","","","","","","","","","","","","","","","","","","","","feedback_test"
"","","","","","psychophysics","251","660424","0.0-13.0-2.0-1.0-0.0-0.46","619","","f","","","","","","","","","","","","","key","f","16.665391752576774","581.8181692076126","359.9999921972103","f","true","img/C_ambi40.png","坏人","simultaneous",""
"","","","","","html-keyboard-response","252","660730","0.0-13.0-2.0-1.0-0.0-1.46","null","<span style='color:GreenYellow; font-size: 70px;'>正确! </span>","null","","","","","","","","","","","","","","","","","","","","","","","feedback_test"
"","","","","","psychophysics","253","662671","0.0-13.0-2.0-1.0-0.0-0.47","940","","f","","","","","","","","","","","","","key","f","16.666226086956854","581.8181692076126","359.9999921972103","f","true","img/C_ambi40.png","好人","simultaneous",""
"","","","","","html-keyboard-response","254","662991","0.0-13.0-2.0-1.0-0.0-1.47","null","<span style='color:GreenYellow; font-size: 70px;'>正确! </span>","null","","","","","","","","","","","","","","","","","","","","","","","feedback_test"
"","","","","","psychophysics","255","664959","0.0-13.0-2.0-1.0-0.0-0.48","965","","j","","","","","","","","","","","","","key","j","16.671267241379045","581.8181692076126","359.9999921972103","j","true","img/S_ambi40.png","坏人","simultaneous",""
"","","","","","html-keyboard-response","256","665269","0.0-13.0-2.0-1.0-0.0-1.48","null","<span style='color:GreenYellow; font-size: 70px;'>正确! </span>","null","","","","","","","","","","","","","","","","","","","","","","","feedback_test"
"","","","","","psychophysics","257","667166","0.0-13.0-2.0-1.0-0.0-0.49","889","","f","","","","","","","","","","","","","key","f","16.66838053097347","581.8181692076126","359.9999921972103","f","true","img/T_ambi40.png","常人","simultaneous",""
"","","","","","html-keyboard-response","258","667477","0.0-13.0-2.0-1.0-0.0-1.49","null","<span style='color:GreenYellow; font-size: 70px;'>正确! </span>","null","","","","","","","","","","","","","","","","","","","","","","","feedback_test"
"","","","","","psychophysics","259","669654","0.0-13.0-2.0-1.0-0.0-0.50","1176","","f","","","","","","","","","","","","","key","f","16.667116279069464","581.8181692076126","359.9999921972103","f","true","img/S_ambi40.png","常人","simultaneous",""
"","","","","","html-keyboard-response","260","669962","0.0-13.0-2.0-1.0-0.0-1.50","null","<span style='color:GreenYellow; font-size: 70px;'>正确! </span>","null","","","","","","","","","","","","","","","","","","","","","","","feedback_test"
"","","","","","psychophysics","261","671597","0.0-13.0-2.0-1.0-0.0-0.51","632","","j","","","","","","","","","","","","","key","j","16.665577319587495","581.8181692076126","359.9999921972103","f","false","img/C_ambi40.png","好人","simultaneous",""
"","","","","","html-keyboard-response","262","671911","0.0-13.0-2.0-1.0-0.0-1.51","null","<span style='color:red; font-size: 70px;'>错误! </span>","null","","","","","","","","","","","","","","","","","","","","","","","feedback_test"
"","","","","","psychophysics","263","674034","0.0-13.0-2.0-1.0-0.0-0.52","1117","","f","","","","","","","","","","","","","key","f","16.66696825396872","581.8181692076126","359.9999921972103","f","true","img/C_ambi40.png","坏人","simultaneous",""
"","","","","","html-keyboard-response","264","674361","0.0-13.0-2.0-1.0-0.0-1.52","null","<span style='color:GreenYellow; font-size: 70px;'>正确! </span>","null","","","","","","","","","","","","","","","","","","","","","","","feedback_test"
"","","","","","psychophysics","265","676316","0.0-13.0-2.0-1.0-0.0-0.53","949","","j","","","","","","","","","","","","","key","j","16.666181034482776","581.8181692076126","359.9999921972103","j","true","img/C_ambi40.png","常人","simultaneous",""
"","","","","","html-keyboard-response","266","676631","0.0-13.0-2.0-1.0-0.0-1.53","null","<span style='color:GreenYellow; font-size: 70px;'>正确! </span>","null","","","","","","","","","","","","","","","","","","","","","","","feedback_test"
"","","","","","psychophysics","267","678215","0.0-13.0-2.0-1.0-0.0-0.54","571","","j","","","","","","","","","","","","","key","j","16.66609574468098","581.8181692076126","359.9999921972103","j","true","img/T_ambi40.png","好人","simultaneous",""
"","","","","","html-keyboard-response","268","678518","0.0-13.0-2.0-1.0-0.0-1.54","null","<span style='color:GreenYellow; font-size: 70px;'>正确! </span>","null","","","","","","","","","","","","","","","","","","","","","","","feedback_test"
"","","","","","psychophysics","269","680310","0.0-13.0-2.0-1.0-0.0-0.55","785","","f","","","","","","","","","","","","","key","f","16.66675471698202","581.8181692076126","359.9999921972103","f","true","img/S_ambi40.png","好人","simultaneous",""
"","","","","","html-keyboard-response","270","680621","0.0-13.0-2.0-1.0-0.0-1.55","null","<span style='color:GreenYellow; font-size: 70px;'>正确! </span>","null","","","","","","","","","","","","","","","","","","","","","","","feedback_test"
"","","","","","psychophysics","271","682340","0.0-13.0-2.0-1.0-0.0-0.56","715","","j","","","","","","","","","","","","","key","j","16.66733333333304","581.8181692076126","359.9999921972103","j","true","img/C_ambi40.png","常人","simultaneous",""
"","","","","","html-keyboard-response","272","682658","0.0-13.0-2.0-1.0-0.0-1.56","null","<span style='color:GreenYellow; font-size: 70px;'>正确! </span>","null","","","","","","","","","","","","","","","","","","","","","","","feedback_test"
"","","","","","psychophysics","273","684271","0.0-13.0-2.0-1.0-0.0-0.57","611","","j","","","","","","","","","","","","","key","j","16.668749999999516","581.8181692076126","359.9999921972103","j","true","img/T_ambi40.png","好人","simultaneous",""
"","","","","","html-keyboard-response","274","684582","0.0-13.0-2.0-1.0-0.0-1.57","null","<span style='color:GreenYellow; font-size: 70px;'>正确! </span>","null","","","","","","","","","","","","","","","","","","","","","","","feedback_test"
"","","","","","psychophysics","275","686359","0.0-13.0-2.0-1.0-0.0-0.58","751","","j","","","","","","","","","","","","","key","j","16.66883653846162","581.8181692076126","359.9999921972103","j","true","img/S_ambi40.png","坏人","simultaneous",""
"","","","","","html-keyboard-response","276","686673","0.0-13.0-2.0-1.0-0.0-1.58","null","<span style='color:GreenYellow; font-size: 70px;'>正确! </span>","null","","","","","","","","","","","","","","","","","","","","","","","feedback_test"
"","","","","","psychophysics","277","688341","0.0-13.0-2.0-1.0-0.0-0.59","665","","f","","","","","","","","","","","","","key","f","16.670828282828396","581.8181692076126","359.9999921972103","f","true","img/T_ambi40.png","坏人","simultaneous",""
"","","","","","html-keyboard-response","278","688647","0.0-13.0-2.0-1.0-0.0-1.59","null","<span style='color:GreenYellow; font-size: 70px;'>正确! </span>","null","","","","","","","","","","","","","","","","","","","","","","","feedback_test"
"","","","","","psychophysics","279","690450","0.0-13.0-2.0-1.0-0.0-0.60","796","","j","","","","","","","","","","","","","key","j","16.666654205607973","581.8181692076126","359.9999921972103","j","true","img/S_ambi40.png","坏人","simultaneous",""
"","","","","","html-keyboard-response","280","690758","0.0-13.0-2.0-1.0-0.0-1.60","null","<span style='color:GreenYellow; font-size: 70px;'>正确! </span>","null","","","","","","","","","","","","","","","","","","","","","","","feedback_test"
"","","","","","psychophysics","281","693119","0.0-13.0-2.0-1.0-0.0-0.61","1359","","f","","","","","","","","","","","","","key","f","16.657228571428487","581.8181692076126","359.9999921972103","f","true","img/S_ambi40.png","常人","simultaneous",""
"","","","","","html-keyboard-response","282","693432","0.0-13.0-2.0-1.0-0.0-1.61","null","<span style='color:GreenYellow; font-size: 70px;'>正确! </span>","null","","","","","","","","","","","","","","","","","","","","","","","feedback_test"
"","","","","","psychophysics","283","695471","0.0-13.0-2.0-1.0-0.0-0.62","1028","","f","","","","","","","","","","","","","key","f","16.668330578512535","581.8181692076126","359.9999921972103","f","true","img/C_ambi40.png","坏人","simultaneous",""
"","","","","","html-keyboard-response","284","695781","0.0-13.0-2.0-1.0-0.0-1.62","null","<span style='color:GreenYellow; font-size: 70px;'>正确! </span>","null","","","","","","","","","","","","","","","","","","","","","","","feedback_test"
"","","","","","psychophysics","285","697568","0.0-13.0-2.0-1.0-0.0-0.63","771","","j","","","","","","","","","","","","","key","j","16.666811320755","581.8181692076126","359.9999921972103","f","false","img/T_ambi40.png","坏人","simultaneous",""
"","","","","","html-keyboard-response","286","697881","0.0-13.0-2.0-1.0-0.0-1.63","null","<span style='color:red; font-size: 70px;'>错误! </span>","null","","","","","","","","","","","","","","","","","","","","","","","feedback_test"
"","","","","","psychophysics","287","699836","0.0-13.0-2.0-1.0-0.0-0.64","954","","f","","","","","","","","","","","","","key","f","16.6679310344826","581.8181692076126","359.9999921972103","f","true","img/S_ambi40.png","好人","simultaneous",""
"","","","","","html-keyboard-response","288","700142","0.0-13.0-2.0-1.0-0.0-1.64","null","<span style='color:GreenYellow; font-size: 70px;'>正确! </span>","null","","","","","","","","","","","","","","","","","","","","","","","feedback_test"
"","","","","","psychophysics","289","701837","0.0-13.0-2.0-1.0-0.0-0.65","686","","j","","","","","","","","","","","","","key","j","16.668297029703183","581.8181692076126","359.9999921972103","j","true","img/T_ambi40.png","好人","simultaneous",""
"","","","","","html-keyboard-response","290","702146","0.0-13.0-2.0-1.0-0.0-1.65","null","<span style='color:GreenYellow; font-size: 70px;'>正确! </span>","null","","","","","","","","","","","","","","","","","","","","","","","feedback_test"
"","","","","","psychophysics","291","703864","0.0-13.0-2.0-1.0-0.0-0.66","713","","j","","","","","","","","","","","","","key","j","16.666188118812205","581.8181692076126","359.9999921972103","j","true","img/C_ambi40.png","常人","simultaneous",""
"","","","","","html-keyboard-response","292","704171","0.0-13.0-2.0-1.0-0.0-1.66","null","<span style='color:GreenYellow; font-size: 70px;'>正确! </span>","null","","","","","","","","","","","","","","","","","","","","","","","feedback_test"
"","","","","","psychophysics","293","706083","0.0-13.0-2.0-1.0-0.0-0.67","909","","f","","","","","","","","","","","","","key","f","16.666681415928874","581.8181692076126","359.9999921972103","f","true","img/C_ambi40.png","好人","simultaneous",""
"","","","","","html-keyboard-response","294","706391","0.0-13.0-2.0-1.0-0.0-1.67","null","<span style='color:GreenYellow; font-size: 70px;'>正确! </span>","null","","","","","","","","","","","","","","","","","","","","","","","feedback_test"
"","","","","","psychophysics","295","708024","0.0-13.0-2.0-1.0-0.0-0.68","623","","j","","","","","","","","","","","","","key","j","16.666742268041226","581.8181692076126","359.9999921972103","f","false","img/T_ambi40.png","常人","simultaneous",""
"","","","","","html-keyboard-response","296","708341","0.0-13.0-2.0-1.0-0.0-1.68","null","<span style='color:red; font-size: 70px;'>错误! </span>","null","","","","","","","","","","","","","","","","","","","","","","","feedback_test"
"","","","","","psychophysics","297","710050","0.0-13.0-2.0-1.0-0.0-0.69","698","","f","","","","","","","","","","","","","key","f","16.666683168316464","581.8181692076126","359.9999921972103","j","false","img/S_ambi40.png","坏人","simultaneous",""
"","","","","","html-keyboard-response","298","710361","0.0-13.0-2.0-1.0-0.0-1.69","null","<span style='color:red; font-size: 70px;'>错误! </span>","null","","","","","","","","","","","","","","","","","","","","","","","feedback_test"
"","","","","","psychophysics","299","712127","0.0-13.0-2.0-1.0-0.0-0.70","759","","j","","","","","","","","","","","","","key","j","16.668866666666943","581.8181692076126","359.9999921972103","j","true","img/T_ambi40.png","好人","simultaneous",""
"","","","","","html-keyboard-response","300","712441","0.0-13.0-2.0-1.0-0.0-1.70","null","<span style='color:GreenYellow; font-size: 70px;'>正确! </span>","null","","","","","","","","","","","","","","","","","","","","","","","feedback_test"
"","","","","","psychophysics","301","714202","0.0-13.0-2.0-1.0-0.0-0.71","756","","j","","","","","","","","","","","","","key","j","16.665990384614606","581.8181692076126","359.9999921972103","j","true","img/C_ambi40.png","常人","simultaneous",""
"","","","","","html-keyboard-response","302","714521","0.0-13.0-2.0-1.0-0.0-1.71","null","<span style='color:GreenYellow; font-size: 70px;'>正确! </span>","null","","","","","","","","","","","","","","","","","","","","","","","feedback_test"
"","","","","","html-keyboard-response","303","719043","0.0-13.0-2.0-1.0-1.0","4520","<style>.context{color:white; font-size: 35px; line-height:40px}</style>                              <div><p class='context'>您正确回答了93% 的试次。</p><p class='context'>您的平均反应时为884毫秒。</p><p class='context'>请按任意键进入休息</p></div>"," ","","","","","","","","","","","","","","","","","","","","","","",""
"","","","","","html-button-response","304","736136","0.0-13.0-2.0-1.0-2.0","17088","
                      <p>您当前还剩余3组实验</p>
                      <p>现在是休息时间，当您结束休息后，您可以点击 结束休息 按钮 继续</p>
                      <p>建议休息时间还剩余<span id=""iii"">60</span>秒</p>","0","","","","","","","","","","","","","","","","","","","","","","",""
"","","","","","psychophysics","305","737870","0.0-13.0-2.0-1.0-0.1-0.72","728","","j","","","","","","","","","","","","","key","j","16.66709708737874","581.8181692076126","359.9999921972103","j","true","img/T_ambi40.png","好人","simultaneous",""
"","","","","","html-keyboard-response","306","738185","0.0-13.0-2.0-1.0-0.1-1.72","null","<span style='color:GreenYellow; font-size: 70px;'>正确! </span>","null","","","","","","","","","","","","","","","","","","","","","","","feedback_test"
"","","","","","psychophysics","307","739936","0.0-13.0-2.0-1.0-0.1-0.73","743","","f","","","","","","","","","","","","","key","f","16.666528846154016","581.8181692076126","359.9999921972103","f","true","img/C_ambi40.png","好人","simultaneous",""
"","","","","","html-keyboard-response","308","740260","0.0-13.0-2.0-1.0-0.1-1.73","null","<span style='color:GreenYellow; font-size: 70px;'>正确! </span>","null","","","","","","","","","","","","","","","","","","","","","","","feedback_test"
"","","","","","psychophysics","309","741933","0.0-13.0-2.0-1.0-0.1-0.74","665","","j","","","","","","","","","","","","","key","j","16.666737373737206","581.8181692076126","359.9999921972103","j","true","img/T_ambi40.png","好人","simultaneous",""
"","","","","","html-keyboard-response","310","742251","0.0-13.0-2.0-1.0-0.1-1.74","null","<span style='color:GreenYellow; font-size: 70px;'>正确! </span>","null","","","","","","","","","","","","","","","","","","","","","","","feedback_test"
"","","","","","psychophysics","311","744060","0.0-13.0-2.0-1.0-0.1-0.75","803","","f","","","","","","","","","","","","","key","f","16.668570093458047","581.8181692076126","359.9999921972103","f","true","img/T_ambi40.png","坏人","simultaneous",""
"","","","","","html-keyboard-response","312","744372","0.0-13.0-2.0-1.0-0.1-1.75","null","<span style='color:GreenYellow; font-size: 70px;'>正确! </span>","null","","","","","","","","","","","","","","","","","","","","","","","feedback_test"
"","","","","","psychophysics","313","746177","0.0-13.0-2.0-1.0-0.1-0.76","796","","j","","","","","","","","","","","","","key","j","16.668747663551237","581.8181692076126","359.9999921972103","f","false","img/S_ambi40.png","常人","simultaneous",""
"","","","","","html-keyboard-response","314","746492","0.0-13.0-2.0-1.0-0.1-1.76","null","<span style='color:red; font-size: 70px;'>错误! </span>","null","","","","","","","","","","","","","","","","","","","","","","","feedback_test"
"","","","","","psychophysics","315","748251","0.0-13.0-2.0-1.0-0.1-0.77","746","","f","","","","","","","","","","","","","key","f","16.666230769230214","581.8181692076126","359.9999921972103","f","true","img/C_ambi40.png","坏人","simultaneous",""
"","","","","","html-keyboard-response","316","748571","0.0-13.0-2.0-1.0-0.1-1.77","null","<span style='color:GreenYellow; font-size: 70px;'>正确! </span>","null","","","","","","","","","","","","","","","","","","","","","","","feedback_test"
"","","","","","psychophysics","317","750374","0.0-13.0-2.0-1.0-0.1-0.78","802","","f","","","","","","","","","","","","","key","f","16.668112149532824","581.8181692076126","359.9999921972103","f","true","img/S_ambi40.png","好人","simultaneous",""
"","","","","","html-keyboard-response","318","750678","0.0-13.0-2.0-1.0-0.1-1.78","null","<span style='color:GreenYellow; font-size: 70px;'>正确! </span>","null","","","","","","","","","","","","","","","","","","","","","","","feedback_test"
"","","","","","psychophysics","319","752328","0.0-13.0-2.0-1.0-0.1-0.79","640","","j","","","","","","","","","","","","","key","j","16.66694897959099","581.8181692076126","359.9999921972103","j","true","img/C_ambi40.png","常人","simultaneous",""
"","","","","","html-keyboard-response","320","752651","0.0-13.0-2.0-1.0-0.1-1.79","null","<span style='color:GreenYellow; font-size: 70px;'>正确! </span>","null","","","","","","","","","","","","","","","","","","","","","","","feedback_test"
"","","","","","psychophysics","321","754294","0.0-13.0-2.0-1.0-0.1-0.80","640","","j","","","","","","","","","","","","","key","j","16.66733673469363","581.8181692076126","359.9999921972103","j","true","img/C_ambi40.png","常人","simultaneous",""
"","","","","","html-keyboard-response","322","754607","0.0-13.0-2.0-1.0-0.1-1.80","null","<span style='color:GreenYellow; font-size: 70px;'>正确! </span>","null","","","","","","","","","","","","","","","","","","","","","","","feedback_test"
"","","","","","psychophysics","323","756203","0.0-13.0-2.0-1.0-0.1-0.81","585","","f","","","","","","","","","","","","","key","f","16.667265957446787","581.8181692076126","359.9999921972103","j","false","img/S_ambi40.png","坏人","simultaneous",""
"","","","","","html-keyboard-response","324","756521","0.0-13.0-2.0-1.0-0.1-1.81","null","<span style='color:red; font-size: 70px;'>错误! </span>","null","","","","","","","","","","","","","","","","","","","","","","","feedback_test"
"","","","","","psychophysics","325","758306","0.0-13.0-2.0-1.0-0.1-0.82","784","","f","","","","","","","","","","","","","key","f","16.666377358490003","581.8181692076126","359.9999921972103","f","true","img/T_ambi40.png","常人","simultaneous",""
"","","","","","html-keyboard-response","326","758622","0.0-13.0-2.0-1.0-0.1-1.82","null","<span style='color:GreenYellow; font-size: 70px;'>正确! </span>","null","","","","","","","","","","","","","","","","","","","","","","","feedback_test"
"","","","","","psychophysics","327","760400","0.0-13.0-2.0-1.0-0.1-0.83","776","","j","","","","","","","","","","","","","key","j","16.66731428571511","581.8181692076126","359.9999921972103","j","true","img/S_ambi40.png","坏人","simultaneous",""
"","","","","","html-keyboard-response","328","760711","0.0-13.0-2.0-1.0-0.1-1.83","null","<span style='color:GreenYellow; font-size: 70px;'>正确! </span>","null","","","","","","","","","","","","","","","","","","","","","","","feedback_test"
"","","","","","psychophysics","329","762440","0.0-13.0-2.0-1.0-0.1-0.84","718","","f","","","","","","","","","","","","","key","f","16.66771844660217","581.8181692076126","359.9999921972103","f","true","img/S_ambi40.png","常人","simultaneous",""
"","","","","","html-keyboard-response","330","762744","0.0-13.0-2.0-1.0-0.1-1.84","null","<span style='color:GreenYellow; font-size: 70px;'>正确! </span>","null","","","","","","","","","","","","","","","","","","","","","","","feedback_test"
"","","","","","psychophysics","331","764550","0.0-13.0-2.0-1.0-0.1-0.85","801","","f","","","","","","","","","","","","","key","f","16.666401869158268","581.8181692076126","359.9999921972103","f","true","img/T_ambi40.png","常人","simultaneous",""
"","","","","","html-keyboard-response","332","764861","0.0-13.0-2.0-1.0-0.1-1.85","null","<span style='color:GreenYellow; font-size: 70px;'>正确! </span>","null","","","","","","","","","","","","","","","","","","","","","","","feedback_test"
"","","","","","psychophysics","333","766499","0.0-13.0-2.0-1.0-0.1-0.86","624","","j","","","","","","","","","","","","","key","j","16.666639175257625","581.8181692076126","359.9999921972103","j","true","img/T_ambi40.png","好人","simultaneous",""
"","","","","","html-keyboard-response","334","766810","0.0-13.0-2.0-1.0-0.1-1.86","null","<span style='color:GreenYellow; font-size: 70px;'>正确! </span>","null","","","","","","","","","","","","","","","","","","","","","","","feedback_test"
"","","","","","psychophysics","335","768471","0.0-13.0-2.0-1.0-0.1-0.87","649","","j","","","","","","","","","","","","","key","j","16.666867346938805","581.8181692076126","359.9999921972103","j","true","img/C_ambi40.png","常人","simultaneous",""
"","","","","","html-keyboard-response","336","768774","0.0-13.0-2.0-1.0-0.1-1.87","null","<span style='color:GreenYellow; font-size: 70px;'>正确! </span>","null","","","","","","","","","","","","","","","","","","","","","","","feedback_test"
"","","","","","psychophysics","337","770448","0.0-13.0-2.0-1.0-0.1-0.88","673","","j","","","","","","","","","","","","","key","j","16.661393939393967","581.8181692076126","359.9999921972103","j","true","img/T_ambi40.png","好人","simultaneous",""
"","","","","","html-keyboard-response","338","770761","0.0-13.0-2.0-1.0-0.1-1.88","null","<span style='color:GreenYellow; font-size: 70px;'>正确! </span>","null","","","","","","","","","","","","","","","","","","","","","","","feedback_test"
"","","","","","psychophysics","339","772504","0.0-13.0-2.0-1.0-0.1-0.89","729","","j","","","","","","","","","","","","","key","j","16.669398058252185","581.8181692076126","359.9999921972103","j","true","img/S_ambi40.png","坏人","simultaneous",""
"","","","","","html-keyboard-response","340","772811","0.0-13.0-2.0-1.0-0.1-1.89","null","<span style='color:GreenYellow; font-size: 70px;'>正确! </span>","null","","","","","","","","","","","","","","","","","","","","","","","feedback_test"
"","","","","","psychophysics","341","774631","0.0-13.0-2.0-1.0-0.1-0.90","815","","j","","","","","","","","","","","","","key","j","16.666583333333687","581.8181692076126","359.9999921972103","j","true","img/C_ambi40.png","常人","simultaneous",""
"","","","","","html-keyboard-response","342","774932","0.0-13.0-2.0-1.0-0.1-1.90","null","<span style='color:GreenYellow; font-size: 70px;'>正确! </span>","null","","","","","","","","","","","","","","","","","","","","","","","feedback_test"
"","","","","","psychophysics","343","776491","0.0-13.0-2.0-1.0-0.1-0.91","549","","j","","","","","","","","","","","","","key","j","16.666434782607805","581.8181692076126","359.9999921972103","j","true","img/S_ambi40.png","坏人","simultaneous",""
"","","","","","html-keyboard-response","344","776801","0.0-13.0-2.0-1.0-0.1-1.91","null","<span style='color:GreenYellow; font-size: 70px;'>正确! </span>","null","","","","","","","","","","","","","","","","","","","","","","","feedback_test"
"","","","","","psychophysics","345","778490","0.0-13.0-2.0-1.0-0.1-0.92","685","","f","","","","","","","","","","","","","key","f","16.66765000000014","581.8181692076126","359.9999921972103","f","true","img/T_ambi40.png","坏人","simultaneous",""
"","","","","","html-keyboard-response","346","778811","0.0-13.0-2.0-1.0-0.1-1.92","null","<span style='color:GreenYellow; font-size: 70px;'>正确! </span>","null","","","","","","","","","","","","","","","","","","","","","","","feedback_test"
"","","","","","psychophysics","347","780693","0.0-13.0-2.0-1.0-0.1-0.93","872","","f","","","","","","","","","","","","","key","f","16.66727678571416","581.8181692076126","359.9999921972103","f","true","img/S_ambi40.png","好人","simultaneous",""
"","","","","","html-keyboard-response","348","781001","0.0-13.0-2.0-1.0-0.1-1.93","null","<span style='color:GreenYellow; font-size: 70px;'>正确! </span>","null","","","","","","","","","","","","","","","","","","","","","","","feedback_test"
"","","","","","psychophysics","349","782919","0.0-13.0-2.0-1.0-0.1-0.94","911","","f","","","","","","","","","","","","","key","f","16.669421052631694","581.8181692076126","359.9999921972103","f","true","img/C_ambi40.png","坏人","simultaneous",""
"","","","","","html-keyboard-response","350","783226","0.0-13.0-2.0-1.0-0.1-1.94","null","<span style='color:GreenYellow; font-size: 70px;'>正确! </span>","null","","","","","","","","","","","","","","","","","","","","","","","feedback_test"
"","","","","","psychophysics","351","785198","0.0-13.0-2.0-1.0-0.1-0.95","957","","f","","","","","","","","","","","","","key","f","16.667119658120278","581.8181692076126","359.9999921972103","f","true","img/C_ambi40.png","好人","simultaneous",""
"","","","","","html-keyboard-response","352","785511","0.0-13.0-2.0-1.0-0.1-1.95","null","<span style='color:GreenYellow; font-size: 70px;'>正确! </span>","null","","","","","","","","","","","","","","","","","","","","","","","feedback_test"
"","","","","","psychophysics","353","787673","0.0-13.0-2.0-1.0-0.1-0.96","1156","","f","","","","","","","","","","","","","key","f","16.66412500000024","581.8181692076126","359.9999921972103","f","true","img/C_ambi40.png","好人","simultaneous",""
"","","","","","html-keyboard-response","354","787991","0.0-13.0-2.0-1.0-0.1-1.96","null","<span style='color:GreenYellow; font-size: 70px;'>正确! </span>","null","","","","","","","","","","","","","","","","","","","","","","","feedback_test"
"","","","","","psychophysics","355","789863","0.0-13.0-2.0-1.0-0.1-0.97","856","","j","","","","","","","","","","","","","key","j","16.66800900900879","581.8181692076126","359.9999921972103","j","true","img/C_ambi40.png","常人","simultaneous",""
"","","","","","html-keyboard-response","356","790168","0.0-13.0-2.0-1.0-0.1-1.97","null","<span style='color:GreenYellow; font-size: 70px;'>正确! </span>","null","","","","","","","","","","","","","","","","","","","","","","","feedback_test"
"","","","","","psychophysics","357","791723","0.0-13.0-2.0-1.0-0.1-0.98","548","","j","","","","","","","","","","","","","key","j","16.666608695651952","581.8181692076126","359.9999921972103","j","true","img/C_ambi40.png","常人","simultaneous",""
"","","","","","html-keyboard-response","358","792032","0.0-13.0-2.0-1.0-0.1-1.98","null","<span style='color:GreenYellow; font-size: 70px;'>正确! </span>","null","","","","","","","","","","","","","","","","","","","","","","","feedback_test"
"","","","","","psychophysics","359","793637","0.0-13.0-2.0-1.0-0.1-0.99","601","","j","","","","","","","","","","","","","key","j","16.66658947368422","581.8181692076126","359.9999921972103","j","true","img/T_ambi40.png","好人","simultaneous",""
"","","","","","html-keyboard-response","360","793952","0.0-13.0-2.0-1.0-0.1-1.99","null","<span style='color:GreenYellow; font-size: 70px;'>正确! </span>","null","","","","","","","","","","","","","","","","","","","","","","","feedback_test"
"","","","","","psychophysics","361","795833","0.0-13.0-2.0-1.0-0.1-0.100","876","","f","","","","","","","","","","","","","key","f","16.66696428571387","581.8181692076126","359.9999921972103","f","true","img/S_ambi40.png","好人","simultaneous",""
"","","","","","html-keyboard-response","362","796153","0.0-13.0-2.0-1.0-0.1-1.100","null","<span style='color:GreenYellow; font-size: 70px;'>正确! </span>","null","","","","","","","","","","","","","","","","","","","","","","","feedback_test"
"","","","","","psychophysics","363","797991","0.0-13.0-2.0-1.0-0.1-0.101","833","","j","","","","","","","","","","","","","key","j","16.66651851851795","581.8181692076126","359.9999921972103","j","true","img/S_ambi40.png","坏人","simultaneous",""
"","","","","","html-keyboard-response","364","798306","0.0-13.0-2.0-1.0-0.1-1.101","null","<span style='color:GreenYellow; font-size: 70px;'>正确! </span>","null","","","","","","","","","","","","","","","","","","","","","","","feedback_test"
"","","","","","psychophysics","365","800221","0.0-13.0-2.0-1.0-0.1-0.102","912","","f","","","","","","","","","","","","","key","f","16.668062499999774","581.8181692076126","359.9999921972103","f","true","img/S_ambi40.png","常人","simultaneous",""
"","","","","","html-keyboard-response","366","800541","0.0-13.0-2.0-1.0-0.1-1.102","null","<span style='color:GreenYellow; font-size: 70px;'>正确! </span>","null","","","","","","","","","","","","","","","","","","","","","","","feedback_test"
"","","","","","psychophysics","367","802619","0.0-13.0-2.0-1.0-0.1-0.103","1077","","f","","","","","","","","","","","","","key","f","16.6669593495932","581.8181692076126","359.9999921972103","f","true","img/T_ambi40.png","常人","simultaneous",""
"","","","","","html-keyboard-response","368","802941","0.0-13.0-2.0-1.0-0.1-1.103","null","<span style='color:GreenYellow; font-size: 70px;'>正确! </span>","null","","","","","","","","","","","","","","","","","","","","","","","feedback_test"
"","","","","","psychophysics","369","804566","0.0-13.0-2.0-1.0-0.1-0.104","611","","j","","","","","","","","","","","","","key","j","16.667552083334158","581.8181692076126","359.9999921972103","j","true","img/T_ambi40.png","好人","simultaneous",""
"","","","","","html-keyboard-response","370","804881","0.0-13.0-2.0-1.0-0.1-1.104","null","<span style='color:GreenYellow; font-size: 70px;'>正确! </span>","null","","","","","","","","","","","","","","","","","","","","","","","feedback_test"
"","","","","","psychophysics","371","806659","0.0-13.0-2.0-1.0-0.1-0.105","773","","f","","","","","","","","","","","","","key","f","16.666019047619333","581.8181692076126","359.9999921972103","f","true","img/C_ambi40.png","坏人","simultaneous",""
"","","","","","html-keyboard-response","372","806972","0.0-13.0-2.0-1.0-0.1-1.105","null","<span style='color:GreenYellow; font-size: 70px;'>正确! </span>","null","","","","","","","","","","","","","","","","","","","","","","","feedback_test"
"","","","","","psychophysics","373","808705","0.0-13.0-2.0-1.0-0.1-0.106","731","","j","","","","","","","","","","","","","key","j","16.668281553397904","581.8181692076126","359.9999921972103","j","true","img/S_ambi40.png","坏人","simultaneous",""
"","","","","","html-keyboard-response","374","809012","0.0-13.0-2.0-1.0-0.1-1.106","null","<span style='color:GreenYellow; font-size: 70px;'>正确! </span>","null","","","","","","","","","","","","","","","","","","","","","","","feedback_test"
"","","","","","psychophysics","375","810765","0.0-13.0-2.0-1.0-0.1-0.107","742","","f","","","","","","","","","","","","","key","f","16.66683653846065","581.8181692076126","359.9999921972103","f","true","img/T_ambi40.png","坏人","simultaneous",""
"","","","","","html-keyboard-response","376","811071","0.0-13.0-2.0-1.0-0.1-1.107","null","<span style='color:GreenYellow; font-size: 70px;'>正确! </span>","null","","","","","","","","","","","","","","","","","","","","","","","feedback_test"
"","","","","","psychophysics","377","812733","0.0-13.0-2.0-1.0-0.1-0.108","659","","j","","","","","","","","","","","","","key","j","16.66874747474753","581.8181692076126","359.9999921972103","j","true","img/T_ambi40.png","好人","simultaneous",""
"","","","","","html-keyboard-response","378","813051","0.0-13.0-2.0-1.0-0.1-1.108","null","<span style='color:GreenYellow; font-size: 70px;'>正确! </span>","null","","","","","","","","","","","","","","","","","","","","","","","feedback_test"
"","","","","","psychophysics","379","814818","0.0-13.0-2.0-1.0-0.1-0.109","758","","j","","","","","","","","","","","","","key","j","16.668476190476767","581.8181692076126","359.9999921972103","j","true","img/T_ambi40.png","好人","simultaneous",""
"","","","","","html-keyboard-response","380","815123","0.0-13.0-2.0-1.0-0.1-1.109","null","<span style='color:GreenYellow; font-size: 70px;'>正确! </span>","null","","","","","","","","","","","","","","","","","","","","","","","feedback_test"
"","","","","","psychophysics","381","817060","0.0-13.0-2.0-1.0-0.1-0.110","936","","f","","","","","","","","","","","","","key","f","16.66399130434729","581.8181692076126","359.9999921972103","f","true","img/C_ambi40.png","坏人","simultaneous",""
"","","","","","html-keyboard-response","382","817381","0.0-13.0-2.0-1.0-0.1-1.110","null","<span style='color:GreenYellow; font-size: 70px;'>正确! </span>","null","","","","","","","","","","","","","","","","","","","","","","","feedback_test"
"","","","","","psychophysics","383","819230","0.0-13.0-2.0-1.0-0.1-0.111","842","","f","","","","","","","","","","","","","key","f","16.666381818182046","581.8181692076126","359.9999921972103","f","true","img/T_ambi40.png","常人","simultaneous",""
"","","","","","html-keyboard-response","384","819538","0.0-13.0-2.0-1.0-0.1-1.111","null","<span style='color:GreenYellow; font-size: 70px;'>正确! </span>","null","","","","","","","","","","","","","","","","","","","","","","","feedback_test"
"","","","","","psychophysics","385","821741","0.0-13.0-2.0-1.0-0.1-0.112","1197","","f","","","","","","","","","","","","","key","f","16.66583969465631","581.8181692076126","359.9999921972103","f","true","img/S_ambi40.png","常人","simultaneous",""
"","","","","","html-keyboard-response","386","822051","0.0-13.0-2.0-1.0-0.1-1.112","null","<span style='color:GreenYellow; font-size: 70px;'>正确! </span>","null","","","","","","","","","","","","","","","","","","","","","","","feedback_test"
"","","","","","psychophysics","387","823941","0.0-13.0-2.0-1.0-0.1-0.113","887","","j","","","","","","","","","","","","","key","j","16.666214285714627","581.8181692076126","359.9999921972103","j","true","img/C_ambi40.png","常人","simultaneous",""
"","","","","","html-keyboard-response","388","824251","0.0-13.0-2.0-1.0-0.1-1.113","null","<span style='color:GreenYellow; font-size: 70px;'>正确! </span>","null","","","","","","","","","","","","","","","","","","","","","","","feedback_test"
"","","","","","psychophysics","389","826019","0.0-13.0-2.0-1.0-0.1-0.114","761","","f","","","","","","","","","","","","","key","f","16.66619047619114","581.8181692076126","359.9999921972103","f","true","img/T_ambi40.png","坏人","simultaneous",""
"","","","","","html-keyboard-response","390","826331","0.0-13.0-2.0-1.0-0.1-1.114","null","<span style='color:GreenYellow; font-size: 70px;'>正确! </span>","null","","","","","","","","","","","","","","","","","","","","","","","feedback_test"
"","","","","","psychophysics","391","828323","0.0-13.0-2.0-1.0-0.1-0.115","979","","f","","","","","","","","","","","","","key","f","16.665906779660443","581.8181692076126","359.9999921972103","f","true","img/S_ambi40.png","好人","simultaneous",""
"","","","","","html-keyboard-response","392","828625","0.0-13.0-2.0-1.0-0.1-1.115","null","<span style='color:GreenYellow; font-size: 70px;'>正确! </span>","null","","","","","","","","","","","","","","","","","","","","","","","feedback_test"
"","","","","","psychophysics","393","830369","0.0-13.0-2.0-1.0-0.1-0.116","741","","j","","","","","","","","","","","","","key","j","16.668339805825596","581.8181692076126","359.9999921972103","j","true","img/S_ambi40.png","坏人","simultaneous",""
"","","","","","html-keyboard-response","394","830690","0.0-13.0-2.0-1.0-0.1-1.116","null","<span style='color:GreenYellow; font-size: 70px;'>正确! </span>","null","","","","","","","","","","","","","","","","","","","","","","","feedback_test"
"","","","","","psychophysics","395","832482","0.0-13.0-2.0-1.0-0.1-0.117","786","","f","","","","","","","","","","","","","key","f","16.666570093458798","581.8181692076126","359.9999921972103","f","true","img/C_ambi40.png","好人","simultaneous",""
"","","","","","html-keyboard-response","396","832799","0.0-13.0-2.0-1.0-0.1-1.117","null","<span style='color:GreenYellow; font-size: 70px;'>正确! </span>","null","","","","","","","","","","","","","","","","","","","","","","","feedback_test"
"","","","","","psychophysics","397","834644","0.0-13.0-2.0-1.0-0.1-0.118","833","","j","","","","","","","","","","","","","key","j","16.667440366971846","581.8181692076126","359.9999921972103","j","true","img/C_ambi40.png","常人","simultaneous",""
"","","","","","html-keyboard-response","398","834961","0.0-13.0-2.0-1.0-0.1-1.118","null","<span style='color:GreenYellow; font-size: 70px;'>正确! </span>","null","","","","","","","","","","","","","","","","","","","","","","","feedback_test"
"","","","","","psychophysics","399","836606","0.0-13.0-2.0-1.0-0.1-0.119","637","","f","","","","","","","","","","","","","key","f","16.66601030927838","581.8181692076126","359.9999921972103","j","false","img/S_ambi40.png","坏人","simultaneous",""
"","","","","","html-keyboard-response","400","836911","0.0-13.0-2.0-1.0-0.1-1.119","null","<span style='color:red; font-size: 70px;'>错误! </span>","null","","","","","","","","","","","","","","","","","","","","","","","feedback_test"
"","","","","","psychophysics","401","838644","0.0-13.0-2.0-1.0-0.1-0.120","728","","f","","","","","","","","","","","","","key","f","16.66671844660214","581.8181692076126","359.9999921972103","f","true","img/C_ambi40.png","坏人","simultaneous",""
"","","","","","html-keyboard-response","402","838951","0.0-13.0-2.0-1.0-0.1-1.120","null","<span style='color:GreenYellow; font-size: 70px;'>正确! </span>","null","","","","","","","","","","","","","","","","","","","","","","","feedback_test"
"","","","","","psychophysics","403","840550","0.0-13.0-2.0-1.0-0.1-0.121","593","","j","","","","","","","","","","","","","key","j","16.665568421053162","581.8181692076126","359.9999921972103","j","true","img/S_ambi40.png","坏人","simultaneous",""
"","","","","","html-keyboard-response","404","840856","0.0-13.0-2.0-1.0-0.1-1.121","null","<span style='color:GreenYellow; font-size: 70px;'>正确! </span>","null","","","","","","","","","","","","","","","","","","","","","","","feedback_test"
"","","","","","psychophysics","405","842736","0.0-13.0-2.0-1.0-0.1-0.122","873","","j","","","","","","","","","","","","","key","j","16.666580357142916","581.8181692076126","359.9999921972103","j","true","img/C_ambi40.png","常人","simultaneous",""
"","","","","","html-keyboard-response","406","843061","0.0-13.0-2.0-1.0-0.1-1.122","null","<span style='color:GreenYellow; font-size: 70px;'>正确! </span>","null","","","","","","","","","","","","","","","","","","","","","","","feedback_test"
