"success","timeout","failed_images","failed_audio","failed_video","trial_type","trial_index","time_elapsed","internal_node_id","rt","stimulus","response","value","item_width_mm","item_height_mm","item_width_px","px2mm","view_dist_mm","item_width_deg","px2deg","scale_factor","win_width_deg","win_height_deg","view_history","response_type","key_press","avg_frame_time","center_x","center_y","correct_response","correct","Image","word","condition","screen_id"
"true","false","[]","[]","[]","preload","0","529","0.0-0.0","","","","","","","","","","","","","","","","","","","","","","","","","",""
"","","","","","html-keyboard-response","1","93236","0.0-1.0","92709","
     <p>您好，欢迎参加本次实验。</p>
     <p>为充分保障您的权利，请确保您已经知晓并同意《参与实验同意书》以及《数据公开知情同意书》。</p>
     <p>如果您未见过上述内容，请咨询实验员。</p>
     <p>如果您选择继续实验，则表示您已经清楚两份知情同意书的内容并同意。</p>
     <p> <div style = ""color: green""><按任意键至下页></div> </p>
     "," ","","","","","","","","","","","","","","","","","","","","","","",""
"","","","","","html-keyboard-response","2","99936","0.0-2.0","6700","
     <p>本实验首先需要您填写一些基本个人信息。</p>
     <p> <div style = ""color: green""><按任意键至下页></div></p>
     "," ","","","","","","","","","","","","","","","","","","","","","","",""
"","","","","","call-function","3","99939","0.0-3.0-0.0","","","","","","","","","","","","","","","","","","","","","","","","","",""
"","","","","","survey-html-form","4","108007","0.0-3.0-1.0","8067","","{""Q0"":""3""}","","","","","","","","","","","","","","","","","","","","","","",""
"","","","","","html-button-response","5","109223","0.0-3.0-2.0","1213","<p style = 'color : white'>您的性别</p>","1","","","","","","","","","","","","","","","","","","","","","","",""
"","","","","","survey-html-form","6","112590","0.0-3.0-3.0","3366","","{""Q0"":""2000""}","","","","","","","","","","","","","","","","","","","","","","",""
"","","","","","survey-html-form","7","115839","0.0-3.0-4.0","3246","","{""Q0"":""5""}","","","","","","","","","","","","","","","","","","","","","","",""
"","","","","","virtual-chinrest","8","307605","0.0-4.0","191770","","","","85.6","53.98","576.6537141763848","6.736363842878677","423.82","11.533074283527698","50","0.7630229185785047","28.8","16.42","","","","","","","","","","","",""
"true","","","","","fullscreen","9","310976","0.0-5.0","","","","","","","","","","","","","","","","","","","","","","","","","",""
"","","","","","instructions","10","434277","0.0-6.0","123211","","","","","","","","","","","","","","[{""page_index"":0,""viewing_time"":7590},{""page_index"":1,""viewing_time"":67485},{""page_index"":2,""viewing_time"":39469},{""page_index"":1,""viewing_time"":4532},{""page_index"":2,""viewing_time"":1319},{""page_index"":3,""viewing_time"":2814}]","","","","","","","","","","",""
"","","","","","psychophysics","11","436949","0.0-7.0-0.0-0.0","null","","null","","","","","","","","","","","","","key","null","16.666000000000185","720","446","j","false","img/S_ambi40.png","坏人","prac_image_first",""
"","","","","","html-keyboard-response","12","437253","0.0-7.0-0.0-1.0","null","<span class='add_' style='color:yellow; font-size: 70px;'> 太慢! </span>","null","","","","","","","","","","","","","","","","","","","","","","","feedback_test"
"","","","","","psychophysics","13","439920","0.0-7.0-0.0-0.1","null","","null","","","","","","","","","","","","","key","null","16.666000000000018","720","446","f","false","img/T_ambi40.png","常人","prac_image_first",""
"","","","","","html-keyboard-response","14","440223","0.0-7.0-0.0-1.1","null","<span class='add_' style='color:yellow; font-size: 70px;'> 太慢! </span>","null","","","","","","","","","","","","","","","","","","","","","","","feedback_test"
"","","","","","psychophysics","15","442398","0.0-7.0-0.0-0.2","1019","","f","","","","","","","","","","","","","key","f","16.666000000000373","720","446","j","false","img/S_ambi40.png","坏人","prac_image_first",""
"","","","","","html-keyboard-response","16","442703","0.0-7.0-0.0-1.2","null","<span style='color:red; font-size: 70px;'>错误! </span>","null","","","","","","","","","","","","","","","","","","","","","","","feedback_test"
"","","","","","psychophysics","17","444382","0.0-7.0-0.0-0.3","526","","j","","","","","","","","","","","","","key","j","16.665999999999496","720","446","j","true","img/T_ambi40.png","好人","prac_image_first",""
"","","","","","html-keyboard-response","18","444683","0.0-7.0-0.0-1.3","null","<span style='color:GreenYellow; font-size: 70px;'>正确! </span>","null","","","","","","","","","","","","","","","","","","","","","","","feedback_test"
"","","","","","psychophysics","19","446736","0.0-7.0-0.0-0.4","899","","j","","","","","","","","","","","","","key","j","16.665999999999823","720","446","f","false","img/S_ambi40.png","好人","prac_image_first",""
"","","","","","html-keyboard-response","20","447039","0.0-7.0-0.0-1.4","null","<span style='color:red; font-size: 70px;'>错误! </span>","null","","","","","","","","","","","","","","","","","","","","","","","feedback_test"
"","","","","","psychophysics","21","449704","0.0-7.0-0.0-0.5","null","","null","","","","","","","","","","","","","key","null","16.666000000000018","720","446","j","false","img/T_ambi40.png","好人","prac_image_first",""
"","","","","","html-keyboard-response","22","450007","0.0-7.0-0.0-1.5","null","<span class='add_' style='color:yellow; font-size: 70px;'> 太慢! </span>","null","","","","","","","","","","","","","","","","","","","","","","","feedback_test"
"","","","","","psychophysics","23","452515","0.0-7.0-0.0-0.6","1354","","j","","","","","","","","","","","","","key","j","16.66599999999998","720","446","j","true","img/C_ambi40.png","常人","prac_image_first",""
"","","","","","html-keyboard-response","24","452820","0.0-7.0-0.0-1.6","null","<span style='color:GreenYellow; font-size: 70px;'>正确! </span>","null","","","","","","","","","","","","","","","","","","","","","","","feedback_test"
"","","","","","psychophysics","25","455293","0.0-7.0-0.0-0.7","1320","","f","","","","","","","","","","","","","key","f","16.674850340135915","720","446","f","true","img/S_ambi40.png","常人","prac_image_first",""
"","","","","","html-keyboard-response","26","455595","0.0-7.0-0.0-1.7","null","<span style='color:GreenYellow; font-size: 70px;'>正确! </span>","null","","","","","","","","","","","","","","","","","","","","","","","feedback_test"
"","","","","","psychophysics","27","457709","0.0-7.0-0.0-0.8","958","","j","","","","","","","","","","","","","key","j","16.66600000000021","720","446","f","false","img/C_ambi40.png","好人","prac_image_first",""
"","","","","","html-keyboard-response","28","458014","0.0-7.0-0.0-1.8","null","<span style='color:red; font-size: 70px;'>错误! </span>","null","","","","","","","","","","","","","","","","","","","","","","","feedback_test"
"","","","","","psychophysics","29","460612","0.0-7.0-0.0-0.9","1442","","j","","","","","","","","","","","","","key","j","16.666000000000256","720","446","f","false","img/T_ambi40.png","坏人","prac_image_first",""
"","","","","","html-keyboard-response","30","460916","0.0-7.0-0.0-1.9","null","<span style='color:red; font-size: 70px;'>错误! </span>","null","","","","","","","","","","","","","","","","","","","","","","","feedback_test"
"","","","","","psychophysics","31","463500","0.0-7.0-0.0-0.10","1429","","j","","","","","","","","","","","","","key","j","16.666000000000086","720","446","j","true","img/C_ambi40.png","常人","prac_image_first",""
"","","","","","html-keyboard-response","32","463803","0.0-7.0-0.0-1.10","null","<span style='color:GreenYellow; font-size: 70px;'>正确! </span>","null","","","","","","","","","","","","","","","","","","","","","","","feedback_test"
"","","","","","psychophysics","33","465738","0.0-7.0-0.0-0.11","783","","f","","","","","","","","","","","","","key","f","16.665999999999716","720","446","f","true","img/C_ambi40.png","坏人","prac_image_first",""
"","","","","","html-keyboard-response","34","466041","0.0-7.0-0.0-1.11","null","<span style='color:GreenYellow; font-size: 70px;'>正确! </span>","null","","","","","","","","","","","","","","","","","","","","","","","feedback_test"
"","","","","","psychophysics","35","467765","0.0-7.0-0.0-0.12","570","","j","","","","","","","","","","","","","key","j","16.665999999999723","720","446","j","true","img/C_ambi40.png","常人","prac_image_first",""
"","","","","","html-keyboard-response","36","468070","0.0-7.0-0.0-1.12","null","<span style='color:GreenYellow; font-size: 70px;'>正确! </span>","null","","","","","","","","","","","","","","","","","","","","","","","feedback_test"
"","","","","","psychophysics","37","470142","0.0-7.0-0.0-0.13","921","","j","","","","","","","","","","","","","key","j","16.666000000000043","720","446","j","true","img/T_ambi40.png","好人","prac_image_first",""
"","","","","","html-keyboard-response","38","470445","0.0-7.0-0.0-1.13","null","<span style='color:GreenYellow; font-size: 70px;'>正确! </span>","null","","","","","","","","","","","","","","","","","","","","","","","feedback_test"
"","","","","","psychophysics","39","472516","0.0-7.0-0.0-0.14","918","","f","","","","","","","","","","","","","key","f","16.666000000000043","720","446","f","true","img/C_ambi40.png","坏人","prac_image_first",""
"","","","","","html-keyboard-response","40","472821","0.0-7.0-0.0-1.14","null","<span style='color:GreenYellow; font-size: 70px;'>正确! </span>","null","","","","","","","","","","","","","","","","","","","","","","","feedback_test"
"","","","","","psychophysics","41","475198","0.0-7.0-0.0-0.15","1225","","j","","","","","","","","","","","","","key","j","16.67523404255308","720","446","j","true","img/S_ambi40.png","坏人","prac_image_first",""
"","","","","","html-keyboard-response","42","475503","0.0-7.0-0.0-1.15","null","<span style='color:GreenYellow; font-size: 70px;'>正确! </span>","null","","","","","","","","","","","","","","","","","","","","","","","feedback_test"
"","","","","","psychophysics","43","477660","0.0-7.0-0.0-0.16","1006","","j","","","","","","","","","","","","","key","j","16.666000000000167","720","446","j","true","img/S_ambi40.png","坏人","prac_image_first",""
"","","","","","html-keyboard-response","44","477963","0.0-7.0-0.0-1.16","null","<span style='color:GreenYellow; font-size: 70px;'>正确! </span>","null","","","","","","","","","","","","","","","","","","","","","","","feedback_test"
"","","","","","psychophysics","45","480621","0.0-7.0-0.0-0.17","null","","null","","","","","","","","","","","","","key","null","16.666000000000018","720","446","f","false","img/S_ambi40.png","常人","prac_image_first",""
"","","","","","html-keyboard-response","46","480927","0.0-7.0-0.0-1.17","null","<span class='add_' style='color:yellow; font-size: 70px;'> 太慢! </span>","null","","","","","","","","","","","","","","","","","","","","","","","feedback_test"
"","","","","","psychophysics","47","483595","0.0-7.0-0.0-0.18","null","","null","","","","","","","","","","","","","key","null","16.66599999999982","720","446","f","false","img/C_ambi40.png","好人","prac_image_first",""
"","","","","","html-keyboard-response","48","483896","0.0-7.0-0.0-1.18","null","<span class='add_' style='color:yellow; font-size: 70px;'> 太慢! </span>","null","","","","","","","","","","","","","","","","","","","","","","","feedback_test"
"","","","","","psychophysics","49","486177","0.0-7.0-0.0-0.19","1124","","f","","","","","","","","","","","","","key","f","16.666000000000007","720","446","j","false","img/T_ambi40.png","好人","prac_image_first",""
"","","","","","html-keyboard-response","50","486478","0.0-7.0-0.0-1.19","null","<span style='color:red; font-size: 70px;'>错误! </span>","null","","","","","","","","","","","","","","","","","","","","","","","feedback_test"
"","","","","","psychophysics","51","488927","0.0-7.0-0.0-0.20","1294","","j","","","","","","","","","","","","","key","j","16.66599999999983","720","446","f","false","img/S_ambi40.png","好人","prac_image_first",""
"","","","","","html-keyboard-response","52","489229","0.0-7.0-0.0-1.20","null","<span style='color:red; font-size: 70px;'>错误! </span>","null","","","","","","","","","","","","","","","","","","","","","","","feedback_test"
"","","","","","psychophysics","53","491395","0.0-7.0-0.0-0.21","1010","","f","","","","","","","","","","","","","key","f","16.665999999999922","720","446","f","true","img/T_ambi40.png","坏人","prac_image_first",""
"","","","","","html-keyboard-response","54","491699","0.0-7.0-0.0-1.21","null","<span style='color:GreenYellow; font-size: 70px;'>正确! </span>","null","","","","","","","","","","","","","","","","","","","","","","","feedback_test"
"","","","","","psychophysics","55","493764","0.0-7.0-0.0-0.22","911","","f","","","","","","","","","","","","","key","f","16.666000000000043","720","446","f","true","img/T_ambi40.png","常人","prac_image_first",""
"","","","","","html-keyboard-response","56","494070","0.0-7.0-0.0-1.22","null","<span style='color:GreenYellow; font-size: 70px;'>正确! </span>","null","","","","","","","","","","","","","","","","","","","","","","","feedback_test"
"","","","","","psychophysics","57","495912","0.0-7.0-0.0-0.23","690","","j","","","","","","","","","","","","","key","j","16.677917431192494","720","446","j","true","img/C_ambi40.png","常人","prac_image_first",""
"","","","","","html-keyboard-response","58","496215","0.0-7.0-0.0-1.23","null","<span style='color:GreenYellow; font-size: 70px;'>正确! </span>","null","","","","","","","","","","","","","","","","","","","","","","","feedback_test"
"","","","","","html-keyboard-response","59","512500","0.0-7.0-1.0-0.0","16283","<style>.context{color:white; font-size: 35px; line-height:40px}</style>                              <div><p class='context'>您正确回答了54% 的试次。</p><p class='context'>您的平均反应时为974毫秒。</p>"," ","","","","","","","","","","","","","","","","","","","","","","",""
"","","","","","instructions","60","532093","0.0-7.0-1.0-1.0","19587","","","","","","","","","","","","","","[{""page_index"":0,""viewing_time"":2137},{""page_index"":1,""viewing_time"":15599},{""page_index"":2,""viewing_time"":1850}]","","","","","","","","","","",""
"","","","","","psychophysics","61","534368","0.0-7.1-0.1-0.24","1123","","j","","","","","","","","","","","","","key","j","16.66599999999938","720","446","j","true","img/S_ambi40.png","坏人","prac_image_first",""
"","","","","","html-keyboard-response","62","534669","0.0-7.1-0.1-1.24","null","<span style='color:GreenYellow; font-size: 70px;'>正确! </span>","null","","","","","","","","","","","","","","","","","","","","","","","feedback_test"
"","","","","","psychophysics","63","537327","0.0-7.1-0.1-0.25","null","","null","","","","","","","","","","","","","key","null","16.666000000000018","720","446","f","false","img/T_ambi40.png","常人","prac_image_first",""
"","","","","","html-keyboard-response","64","537631","0.0-7.1-0.1-1.25","null","<span class='add_' style='color:yellow; font-size: 70px;'> 太慢! </span>","null","","","","","","","","","","","","","","","","","","","","","","","feedback_test"
"","","","","","psychophysics","65","539731","0.0-7.1-0.1-0.26","945","","j","","","","","","","","","","","","","key","j","16.666","720","446","j","true","img/S_ambi40.png","坏人","prac_image_first",""
"","","","","","html-keyboard-response","66","540032","0.0-7.1-0.1-1.26","null","<span style='color:GreenYellow; font-size: 70px;'>正确! </span>","null","","","","","","","","","","","","","","","","","","","","","","","feedback_test"
"","","","","","psychophysics","67","542062","0.0-7.1-0.1-0.27","875","","j","","","","","","","","","","","","","key","j","16.666000000000086","720","446","j","true","img/C_ambi40.png","常人","prac_image_first",""
"","","","","","html-keyboard-response","68","542366","0.0-7.1-0.1-1.27","null","<span style='color:GreenYellow; font-size: 70px;'>正确! </span>","null","","","","","","","","","","","","","","","","","","","","","","","feedback_test"
"","","","","","psychophysics","69","544425","0.0-7.1-0.1-0.28","905","","f","","","","","","","","","","","","","key","f","16.666000000000516","720","446","f","true","img/S_ambi40.png","常人","prac_image_first",""
"","","","","","html-keyboard-response","70","544730","0.0-7.1-0.1-1.28","null","<span style='color:GreenYellow; font-size: 70px;'>正确! </span>","null","","","","","","","","","","","","","","","","","","","","","","","feedback_test"
"","","","","","psychophysics","71","547386","0.0-7.1-0.1-0.29","null","","null","","","","","","","","","","","","","key","null","16.666000000000018","720","446","f","false","img/C_ambi40.png","好人","prac_image_first",""
"","","","","","html-keyboard-response","72","547691","0.0-7.1-0.1-1.29","null","<span class='add_' style='color:yellow; font-size: 70px;'> 太慢! </span>","null","","","","","","","","","","","","","","","","","","","","","","","feedback_test"
"","","","","","psychophysics","73","550193","0.0-7.1-0.1-0.30","1349","","f","","","","","","","","","","","","","key","f","16.674738255034093","720","446","j","false","img/T_ambi40.png","好人","prac_image_first",""
"","","","","","html-keyboard-response","74","550499","0.0-7.1-0.1-1.30","null","<span style='color:red; font-size: 70px;'>错误! </span>","null","","","","","","","","","","","","","","","","","","","","","","","feedback_test"
"","","","","","psychophysics","75","553166","0.0-7.1-0.1-0.31","null","","null","","","","","","","","","","","","","key","null","16.66599999999982","720","446","f","false","img/S_ambi40.png","好人","prac_image_first",""
"","","","","","html-keyboard-response","76","553470","0.0-7.1-0.1-1.31","null","<span class='add_' style='color:yellow; font-size: 70px;'> 太慢! </span>","null","","","","","","","","","","","","","","","","","","","","","","","feedback_test"
"","","","","","psychophysics","77","555913","0.0-7.1-0.1-0.32","1291","","j","","","","","","","","","","","","","key","j","16.666000000000448","720","446","f","false","img/C_ambi40.png","坏人","prac_image_first",""
"","","","","","html-keyboard-response","78","556215","0.0-7.1-0.1-1.32","null","<span style='color:red; font-size: 70px;'>错误! </span>","null","","","","","","","","","","","","","","","","","","","","","","","feedback_test"
"","","","","","psychophysics","79","558340","0.0-7.1-0.1-0.33","970","","j","","","","","","","","","","","","","key","j","16.66600000000042","720","446","j","true","img/C_ambi40.png","常人","prac_image_first",""
"","","","","","html-keyboard-response","80","558644","0.0-7.1-0.1-1.33","null","<span style='color:GreenYellow; font-size: 70px;'>正确! </span>","null","","","","","","","","","","","","","","","","","","","","","","","feedback_test"
"","","","","","psychophysics","81","561148","0.0-7.1-0.1-0.34","1349","","j","","","","","","","","","","","","","key","j","16.66599999999959","720","446","j","true","img/T_ambi40.png","好人","prac_image_first",""
"","","","","","html-keyboard-response","82","561453","0.0-7.1-0.1-1.34","null","<span style='color:GreenYellow; font-size: 70px;'>正确! </span>","null","","","","","","","","","","","","","","","","","","","","","","","feedback_test"
"","","","","","psychophysics","83","563525","0.0-7.1-0.1-0.35","922","","f","","","","","","","","","","","","","key","f","16.665999999999567","720","446","f","true","img/T_ambi40.png","坏人","prac_image_first",""
"","","","","","html-keyboard-response","84","563830","0.0-7.1-0.1-1.35","null","<span style='color:GreenYellow; font-size: 70px;'>正确! </span>","null","","","","","","","","","","","","","","","","","","","","","","","feedback_test"
"","","","","","psychophysics","85","566483","0.0-7.1-0.1-0.36","null","","null","","","","","","","","","","","","","key","null","16.666000000000018","720","446","f","false","img/C_ambi40.png","坏人","prac_image_first",""
"","","","","","html-keyboard-response","86","566785","0.0-7.1-0.1-1.36","null","<span class='add_' style='color:yellow; font-size: 70px;'> 太慢! </span>","null","","","","","","","","","","","","","","","","","","","","","","","feedback_test"
"","","","","","psychophysics","87","568828","0.0-7.1-0.1-0.37","890","","j","","","","","","","","","","","","","key","j","16.666000000000086","720","446","j","true","img/C_ambi40.png","常人","prac_image_first",""
"","","","","","html-keyboard-response","88","569130","0.0-7.1-0.1-1.37","null","<span style='color:GreenYellow; font-size: 70px;'>正确! </span>","null","","","","","","","","","","","","","","","","","","","","","","","feedback_test"
"","","","","","psychophysics","89","571092","0.0-7.1-0.1-0.38","806","","j","","","","","","","","","","","","","key","j","16.677119658119643","720","446","j","true","img/T_ambi40.png","好人","prac_image_first",""
"","","","","","html-keyboard-response","90","571394","0.0-7.1-0.1-1.38","null","<span style='color:GreenYellow; font-size: 70px;'>正确! </span>","null","","","","","","","","","","","","","","","","","","","","","","","feedback_test"
"","","","","","psychophysics","91","573414","0.0-7.1-0.1-0.39","865","","f","","","","","","","","","","","","","key","f","16.66600000000035","720","446","f","true","img/T_ambi40.png","常人","prac_image_first",""
"","","","","","html-keyboard-response","92","573719","0.0-7.1-0.1-1.39","null","<span style='color:GreenYellow; font-size: 70px;'>正确! </span>","null","","","","","","","","","","","","","","","","","","","","","","","feedback_test"
"","","","","","psychophysics","93","575885","0.0-7.1-0.1-0.40","1015","","j","","","","","","","","","","","","","key","j","16.666000000000167","720","446","j","true","img/C_ambi40.png","常人","prac_image_first",""
"","","","","","html-keyboard-response","94","576191","0.0-7.1-0.1-1.40","null","<span style='color:GreenYellow; font-size: 70px;'>正确! </span>","null","","","","","","","","","","","","","","","","","","","","","","","feedback_test"
"","","","","","psychophysics","95","578227","0.0-7.1-0.1-0.41","883","","j","","","","","","","","","","","","","key","j","16.666000000000086","720","446","j","true","img/T_ambi40.png","好人","prac_image_first",""
"","","","","","html-keyboard-response","96","578529","0.0-7.1-0.1-1.41","null","<span style='color:GreenYellow; font-size: 70px;'>正确! </span>","null","","","","","","","","","","","","","","","","","","","","","","","feedback_test"
"","","","","","psychophysics","97","580208","0.0-7.1-0.1-0.42","527","","j","","","","","","","","","","","","","key","j","16.66600000000093","720","446","f","false","img/T_ambi40.png","坏人","prac_image_first",""
"","","","","","html-keyboard-response","98","580511","0.0-7.1-0.1-1.42","null","<span style='color:red; font-size: 70px;'>错误! </span>","null","","","","","","","","","","","","","","","","","","","","","","","feedback_test"
"","","","","","psychophysics","99","582592","0.0-7.1-0.1-0.43","927","","f","","","","","","","","","","","","","key","f","16.666000000000256","720","446","f","true","img/S_ambi40.png","常人","prac_image_first",""
"","","","","","html-keyboard-response","100","582894","0.0-7.1-0.1-1.43","null","<span style='color:GreenYellow; font-size: 70px;'>正确! </span>","null","","","","","","","","","","","","","","","","","","","","","","","feedback_test"
"","","","","","psychophysics","101","585162","0.0-7.1-0.1-0.44","1114","","j","","","","","","","","","","","","","key","j","16.66599999999938","720","446","j","true","img/S_ambi40.png","坏人","prac_image_first",""
"","","","","","html-keyboard-response","102","585463","0.0-7.1-0.1-1.44","null","<span style='color:GreenYellow; font-size: 70px;'>正确! </span>","null","","","","","","","","","","","","","","","","","","","","","","","feedback_test"
"","","","","","psychophysics","103","587559","0.0-7.1-0.1-0.45","940","","j","","","","","","","","","","","","","key","j","16.666","720","446","j","true","img/S_ambi40.png","坏人","prac_image_first",""
"","","","","","html-keyboard-response","104","587861","0.0-7.1-0.1-1.45","null","<span style='color:GreenYellow; font-size: 70px;'>正确! </span>","null","","","","","","","","","","","","","","","","","","","","","","","feedback_test"
"","","","","","psychophysics","105","589843","0.0-7.1-0.1-0.46","828","","f","","","","","","","","","","","","","key","f","16.665999999999904","720","446","f","true","img/S_ambi40.png","好人","prac_image_first",""
"","","","","","html-keyboard-response","106","590144","0.0-7.1-0.1-1.46","null","<span style='color:GreenYellow; font-size: 70px;'>正确! </span>","null","","","","","","","","","","","","","","","","","","","","","","","feedback_test"
"","","","","","psychophysics","107","592811","0.0-7.1-0.1-0.47","null","","null","","","","","","","","","","","","","key","null","16.674194968553735","720","446","f","false","img/C_ambi40.png","好人","prac_image_first",""
"","","","","","html-keyboard-response","108","593117","0.0-7.1-0.1-1.47","null","<span class='add_' style='color:yellow; font-size: 70px;'> 太慢! </span>","null","","","","","","","","","","","","","","","","","","","","","","","feedback_test"
"","","","","","html-keyboard-response","109","596495","0.0-8.0","3376","<style>.context{color:white; font-size: 35px; line-height:40px}</style>                              <div><p class='context'>您正确回答了67% 的试次。</p><p class='context'>您的平均反应时为960毫秒。</p><p class='context'>恭喜您完成这一阶段的练习。按任意键进入<span style='color: yellow;'>先文字后图形条件</span>的练习。</p></div>"," ","","","","","","","","","","","","","","","","","","","","","","",""
"","","","","","psychophysics","110","599163","0.0-9.0-0.0-0.0","null","","null","","","","","","","","","","","","","key","null","16.66599999999982","720","446","j","false","img/T_ambi40.png","好人","prac_word_first",""
"","","","","","html-keyboard-response","111","599469","0.0-9.0-0.0-1.0","null","<span class='add_' style='color:yellow; font-size: 70px;'> 太慢! </span>","null","","","","","","","","","","","","","","","","","","","","","","","feedback_test"
"","","","","","psychophysics","112","601646","0.0-9.0-0.0-0.1","1025","","j","","","","","","","","","","","","","key","j","16.665999999999922","720","446","f","false","img/T_ambi40.png","常人","prac_word_first",""
"","","","","","html-keyboard-response","113","601948","0.0-9.0-0.0-1.1","null","<span style='color:red; font-size: 70px;'>错误! </span>","null","","","","","","","","","","","","","","","","","","","","","","","feedback_test"
"","","","","","psychophysics","114","603895","0.0-9.0-0.0-0.2","793","","f","","","","","","","","","","","","","key","f","16.666000000000448","720","446","f","true","img/C_ambi40.png","坏人","prac_word_first",""
"","","","","","html-keyboard-response","115","604198","0.0-9.0-0.0-1.2","null","<span style='color:GreenYellow; font-size: 70px;'>正确! </span>","null","","","","","","","","","","","","","","","","","","","","","","","feedback_test"
"","","","","","psychophysics","116","606852","0.0-9.0-0.0-0.3","null","","null","","","","","","","","","","","","","key","null","16.666000000000018","720","446","f","false","img/S_ambi40.png","好人","prac_word_first",""
"","","","","","html-keyboard-response","117","607155","0.0-9.0-0.0-1.3","null","<span class='add_' style='color:yellow; font-size: 70px;'> 太慢! </span>","null","","","","","","","","","","","","","","","","","","","","","","","feedback_test"
"","","","","","psychophysics","118","609813","0.0-9.0-0.0-0.4","1503","","j","","","","","","","","","","","","","key","j","16.666000000000018","720","446","j","true","img/C_ambi40.png","常人","prac_word_first",""
"","","","","","html-keyboard-response","119","610119","0.0-9.0-0.0-1.4","null","<span class='add_' style='color:yellow; font-size: 70px;'> 太慢! </span>","null","","","","","","","","","","","","","","","","","","","","","","","feedback_test"
"","","","","","psychophysics","120","612071","0.0-9.0-0.0-0.5","801","","j","","","","","","","","","","","","","key","j","16.677249999999887","720","446","j","true","img/T_ambi40.png","好人","prac_word_first",""
"","","","","","html-keyboard-response","121","612377","0.0-9.0-0.0-1.5","null","<span style='color:GreenYellow; font-size: 70px;'>正确! </span>","null","","","","","","","","","","","","","","","","","","","","","","","feedback_test"
"","","","","","psychophysics","122","614693","0.0-9.0-0.0-0.6","1165","","j","","","","","","","","","","","","","key","j","16.66599999999955","720","446","f","false","img/T_ambi40.png","坏人","prac_word_first",""
"","","","","","html-keyboard-response","123","614997","0.0-9.0-0.0-1.6","null","<span style='color:red; font-size: 70px;'>错误! </span>","null","","","","","","","","","","","","","","","","","","","","","","","feedback_test"
"","","","","","psychophysics","124","617591","0.0-9.0-0.0-0.7","1439","","f","","","","","","","","","","","","","key","f","16.66599999999988","720","446","f","true","img/S_ambi40.png","常人","prac_word_first",""
"","","","","","html-keyboard-response","125","617894","0.0-9.0-0.0-1.7","null","<span style='color:GreenYellow; font-size: 70px;'>正确! </span>","null","","","","","","","","","","","","","","","","","","","","","","","feedback_test"
"","","","","","psychophysics","126","619784","0.0-9.0-0.0-0.8","736","","j","","","","","","","","","","","","","key","j","16.665999999999517","720","446","f","false","img/C_ambi40.png","好人","prac_word_first",""
"","","","","","html-keyboard-response","127","620086","0.0-9.0-0.0-1.8","null","<span style='color:red; font-size: 70px;'>错误! </span>","null","","","","","","","","","","","","","","","","","","","","","","","feedback_test"
"","","","","","psychophysics","128","622743","0.0-9.0-0.0-0.9","null","","null","","","","","","","","","","","","","key","null","16.666000000000018","720","446","j","false","img/S_ambi40.png","坏人","prac_word_first",""
"","","","","","html-keyboard-response","129","623047","0.0-9.0-0.0-1.9","null","<span class='add_' style='color:yellow; font-size: 70px;'> 太慢! </span>","null","","","","","","","","","","","","","","","","","","","","","","","feedback_test"
"","","","","","psychophysics","130","625309","0.0-9.0-0.0-0.10","1109","","j","","","","","","","","","","","","","key","j","16.666000000000242","720","446","j","true","img/C_ambi40.png","常人","prac_word_first",""
"","","","","","html-keyboard-response","131","625613","0.0-9.0-0.0-1.10","null","<span style='color:GreenYellow; font-size: 70px;'>正确! </span>","null","","","","","","","","","","","","","","","","","","","","","","","feedback_test"
"","","","","","psychophysics","132","628269","0.0-9.0-0.0-0.11","null","","null","","","","","","","","","","","","","key","null","16.666000000000018","720","446","j","false","img/S_ambi40.png","坏人","prac_word_first",""
"","","","","","html-keyboard-response","133","628575","0.0-9.0-0.0-1.11","null","<span class='add_' style='color:yellow; font-size: 70px;'> 太慢! </span>","null","","","","","","","","","","","","","","","","","","","","","","","feedback_test"
"","","","","","psychophysics","134","630718","0.0-9.0-0.0-0.12","988","","j","","","","","","","","","","","","","key","j","16.676251968504552","720","446","j","true","img/S_ambi40.png","坏人","prac_word_first",""
"","","","","","html-keyboard-response","135","631021","0.0-9.0-0.0-1.12","null","<span style='color:GreenYellow; font-size: 70px;'>正确! </span>","null","","","","","","","","","","","","","","","","","","","","","","","feedback_test"
"","","","","","psychophysics","136","632927","0.0-9.0-0.0-0.13","755","","j","","","","","","","","","","","","","key","j","16.66600000000027","720","446","f","false","img/C_ambi40.png","好人","prac_word_first",""
"","","","","","html-keyboard-response","137","633229","0.0-9.0-0.0-1.13","null","<span style='color:red; font-size: 70px;'>错误! </span>","null","","","","","","","","","","","","","","","","","","","","","","","feedback_test"
"","","","","","psychophysics","138","635874","0.0-9.0-0.0-0.14","1489","","f","","","","","","","","","","","","","key","f","16.666000000000018","720","446","f","true","img/C_ambi40.png","坏人","prac_word_first",""
"","","","","","html-keyboard-response","139","636177","0.0-9.0-0.0-1.14","null","<span style='color:GreenYellow; font-size: 70px;'>正确! </span>","null","","","","","","","","","","","","","","","","","","","","","","","feedback_test"
"","","","","","psychophysics","140","638311","0.0-9.0-0.0-0.15","979","","j","","","","","","","","","","","","","key","j","16.66600000000042","720","446","j","true","img/C_ambi40.png","常人","prac_word_first",""
"","","","","","html-keyboard-response","141","638615","0.0-9.0-0.0-1.15","null","<span style='color:GreenYellow; font-size: 70px;'>正确! </span>","null","","","","","","","","","","","","","","","","","","","","","","","feedback_test"
"","","","","","psychophysics","142","640676","0.0-9.0-0.0-0.16","907","","j","","","","","","","","","","","","","key","j","16.665999999999567","720","446","f","false","img/S_ambi40.png","好人","prac_word_first",""
"","","","","","html-keyboard-response","143","640977","0.0-9.0-0.0-1.16","null","<span style='color:red; font-size: 70px;'>错误! </span>","null","","","","","","","","","","","","","","","","","","","","","","","feedback_test"
"","","","","","psychophysics","144","643635","0.0-9.0-0.0-0.17","null","","null","","","","","","","","","","","","","key","null","16.666000000000018","720","446","f","false","img/T_ambi40.png","坏人","prac_word_first",""
"","","","","","html-keyboard-response","145","643941","0.0-9.0-0.0-1.17","null","<span class='add_' style='color:yellow; font-size: 70px;'> 太慢! </span>","null","","","","","","","","","","","","","","","","","","","","","","","feedback_test"
"","","","","","psychophysics","146","645695","0.0-9.0-0.0-0.18","602","","j","","","","","","","","","","","","","key","j","16.665999999999677","720","446","f","false","img/T_ambi40.png","常人","prac_word_first",""
"","","","","","html-keyboard-response","147","645997","0.0-9.0-0.0-1.18","null","<span style='color:red; font-size: 70px;'>错误! </span>","null","","","","","","","","","","","","","","","","","","","","","","","feedback_test"
"","","","","","psychophysics","148","647976","0.0-9.0-0.0-0.19","824","","j","","","","","","","","","","","","","key","j","16.665999999999904","720","446","j","true","img/T_ambi40.png","好人","prac_word_first",""
"","","","","","html-keyboard-response","149","648277","0.0-9.0-0.0-1.19","null","<span style='color:GreenYellow; font-size: 70px;'>正确! </span>","null","","","","","","","","","","","","","","","","","","","","","","","feedback_test"
"","","","","","psychophysics","150","649686","0.0-9.0-0.0-0.20","253","","j","","","","","","","","","","","","","key","j","16.666000000000594","720","446","j","true","img/C_ambi40.png","常人","prac_word_first",""
"","","","","","html-keyboard-response","151","649988","0.0-9.0-0.0-1.20","null","<span style='color:GreenYellow; font-size: 70px;'>正确! </span>","null","","","","","","","","","","","","","","","","","","","","","","","feedback_test"
"","","","","","psychophysics","152","652654","0.0-9.0-0.0-0.21","null","","null","","","","","","","","","","","","","key","null","16.674182389937517","720","446","f","false","img/S_ambi40.png","常人","prac_word_first",""
"","","","","","html-keyboard-response","153","652960","0.0-9.0-0.0-1.21","null","<span class='add_' style='color:yellow; font-size: 70px;'> 太慢! </span>","null","","","","","","","","","","","","","","","","","","","","","","","feedback_test"
"","","","","","psychophysics","154","654898","0.0-9.0-0.0-0.22","783","","j","","","","","","","","","","","","","key","j","16.665999999999716","720","446","j","true","img/T_ambi40.png","好人","prac_word_first",""
"","","","","","html-keyboard-response","155","655202","0.0-9.0-0.0-1.22","null","<span style='color:GreenYellow; font-size: 70px;'>正确! </span>","null","","","","","","","","","","","","","","","","","","","","","","","feedback_test"
"","","","","","psychophysics","156","657243","0.0-9.0-0.0-0.23","889","","j","","","","","","","","","","","","","key","j","16.666000000000086","720","446","j","true","img/S_ambi40.png","坏人","prac_word_first",""
"","","","","","html-keyboard-response","157","657548","0.0-9.0-0.0-1.23","null","<span style='color:GreenYellow; font-size: 70px;'>正确! </span>","null","","","","","","","","","","","","","","","","","","","","","","","feedback_test"
"","","","","","html-keyboard-response","158","659585","0.0-9.0-1.0-0.0","2034","<style>.context{color:white; font-size: 35px; line-height:40px}</style>                              <div><p class='context'>您正确回答了50% 的试次。</p><p class='context'>您的平均反应时为988毫秒。</p>"," ","","","","","","","","","","","","","","","","","","","","","","",""
"","","","","","instructions","159","669292","0.0-9.0-1.0-1.0","9702","","","","","","","","","","","","","","[{""page_index"":0,""viewing_time"":1735},{""page_index"":1,""viewing_time"":5849},{""page_index"":2,""viewing_time"":2117}]","","","","","","","","","","",""
"","","","","","psychophysics","160","671951","0.0-9.1-0.1-0.24","null","","null","","","","","","","","","","","","","key","null","16.666000000000018","720","446","f","false","img/T_ambi40.png","常人","prac_word_first",""
"","","","","","html-keyboard-response","161","672252","0.0-9.1-0.1-1.24","null","<span class='add_' style='color:yellow; font-size: 70px;'> 太慢! </span>","null","","","","","","","","","","","","","","","","","","","","","","","feedback_test"
"","","","","","psychophysics","162","674295","0.0-9.1-0.1-0.25","892","","j","","","","","","","","","","","","","key","j","16.666000000000086","720","446","j","true","img/C_ambi40.png","常人","prac_word_first",""
"","","","","","html-keyboard-response","163","674601","0.0-9.1-0.1-1.25","null","<span style='color:GreenYellow; font-size: 70px;'>正确! </span>","null","","","","","","","","","","","","","","","","","","","","","","","feedback_test"
"","","","","","psychophysics","164","676676","0.0-9.1-0.1-0.26","923","","j","","","","","","","","","","","","","key","j","16.666000000000516","720","446","j","true","img/T_ambi40.png","好人","prac_word_first",""
"","","","","","html-keyboard-response","165","676977","0.0-9.1-0.1-1.26","null","<span style='color:GreenYellow; font-size: 70px;'>正确! </span>","null","","","","","","","","","","","","","","","","","","","","","","","feedback_test"
"","","","","","psychophysics","166","678918","0.0-9.1-0.1-0.27","788","","j","","","","","","","","","","","","","key","j","16.665999999999716","720","446","j","true","img/S_ambi40.png","坏人","prac_word_first",""
"","","","","","html-keyboard-response","167","679219","0.0-9.1-0.1-1.27","null","<span style='color:GreenYellow; font-size: 70px;'>正确! </span>","null","","","","","","","","","","","","","","","","","","","","","","","feedback_test"
"","","","","","psychophysics","168","681486","0.0-9.1-0.1-0.28","1116","","j","","","","","","","","","","","","","key","j","16.675731343284088","720","446","j","true","img/C_ambi40.png","常人","prac_word_first",""
"","","","","","html-keyboard-response","169","681787","0.0-9.1-0.1-1.28","null","<span style='color:GreenYellow; font-size: 70px;'>正确! </span>","null","","","","","","","","","","","","","","","","","","","","","","","feedback_test"
"","","","","","psychophysics","170","684452","0.0-9.1-0.1-0.29","null","","null","","","","","","","","","","","","","key","null","16.666000000000018","720","446","j","false","img/S_ambi40.png","坏人","prac_word_first",""
"","","","","","html-keyboard-response","171","684753","0.0-9.1-0.1-1.29","null","<span class='add_' style='color:yellow; font-size: 70px;'> 太慢! </span>","null","","","","","","","","","","","","","","","","","","","","","","","feedback_test"
"","","","","","psychophysics","172","686613","0.0-9.1-0.1-0.30","708","","f","","","","","","","","","","","","","key","f","16.666000000000086","720","446","f","true","img/T_ambi40.png","坏人","prac_word_first",""
"","","","","","html-keyboard-response","173","686918","0.0-9.1-0.1-1.30","null","<span style='color:GreenYellow; font-size: 70px;'>正确! </span>","null","","","","","","","","","","","","","","","","","","","","","","","feedback_test"
"","","","","","psychophysics","174","688942","0.0-9.1-0.1-0.31","872","","j","","","","","","","","","","","","","key","j","16.66600000000035","720","446","f","false","img/C_ambi40.png","好人","prac_word_first",""
"","","","","","html-keyboard-response","175","689245","0.0-9.1-0.1-1.31","null","<span style='color:red; font-size: 70px;'>错误! </span>","null","","","","","","","","","","","","","","","","","","","","","","","feedback_test"
"","","","","","psychophysics","176","691562","0.0-9.1-0.1-0.32","1149","","f","","","","","","","","","","","","","key","f","16.665999999999777","720","446","f","true","img/C_ambi40.png","坏人","prac_word_first",""
"","","","","","html-keyboard-response","177","691868","0.0-9.1-0.1-1.32","null","<span style='color:GreenYellow; font-size: 70px;'>正确! </span>","null","","","","","","","","","","","","","","","","","","","","","","","feedback_test"
"","","","","","psychophysics","178","694521","0.0-9.1-0.1-0.33","null","","null","","","","","","","","","","","","","key","null","16.666000000000018","720","446","j","false","img/T_ambi40.png","好人","prac_word_first",""
"","","","","","html-keyboard-response","179","694827","0.0-9.1-0.1-1.33","null","<span class='add_' style='color:yellow; font-size: 70px;'> 太慢! </span>","null","","","","","","","","","","","","","","","","","","","","","","","feedback_test"
"","","","","","psychophysics","180","696760","0.0-9.1-0.1-0.34","779","","j","","","","","","","","","","","","","key","j","16.665999999999716","720","446","f","false","img/S_ambi40.png","常人","prac_word_first",""
"","","","","","html-keyboard-response","181","697063","0.0-9.1-0.1-1.34","null","<span style='color:red; font-size: 70px;'>错误! </span>","null","","","","","","","","","","","","","","","","","","","","","","","feedback_test"
"","","","","","psychophysics","182","699438","0.0-9.1-0.1-0.35","1220","","f","","","","","","","","","","","","","key","f","16.66600000000031","720","446","f","true","img/S_ambi40.png","好人","prac_word_first",""
"","","","","","html-keyboard-response","183","699743","0.0-9.1-0.1-1.35","null","<span style='color:GreenYellow; font-size: 70px;'>正确! </span>","null","","","","","","","","","","","","","","","","","","","","","","","feedback_test"
"","","","","","psychophysics","184","701809","0.0-9.1-0.1-0.36","910","","f","","","","","","","","","","","","","key","f","16.67658536585343","720","446","f","true","img/C_ambi40.png","坏人","prac_word_first",""
"","","","","","html-keyboard-response","185","702113","0.0-9.1-0.1-1.36","null","<span style='color:GreenYellow; font-size: 70px;'>正确! </span>","null","","","","","","","","","","","","","","","","","","","","","","","feedback_test"
"","","","","","psychophysics","186","704162","0.0-9.1-0.1-0.37","893","","j","","","","","","","","","","","","","key","j","16.665999999999823","720","446","f","false","img/T_ambi40.png","常人","prac_word_first",""
"","","","","","html-keyboard-response","187","704466","0.0-9.1-0.1-1.37","null","<span style='color:red; font-size: 70px;'>错误! </span>","null","","","","","","","","","","","","","","","","","","","","","","","feedback_test"
"","","","","","psychophysics","188","706841","0.0-9.1-0.1-0.38","1223","","j","","","","","","","","","","","","","key","j","16.66600000000031","720","446","j","true","img/S_ambi40.png","坏人","prac_word_first",""
"","","","","","html-keyboard-response","189","707143","0.0-9.1-0.1-1.38","null","<span style='color:GreenYellow; font-size: 70px;'>正确! </span>","null","","","","","","","","","","","","","","","","","","","","","","","feedback_test"
"","","","","","psychophysics","190","709191","0.0-9.1-0.1-0.39","897","","j","","","","","","","","","","","","","key","j","16.665999999999823","720","446","j","true","img/S_ambi40.png","坏人","prac_word_first",""
"","","","","","html-keyboard-response","191","709494","0.0-9.1-0.1-1.39","null","<span style='color:GreenYellow; font-size: 70px;'>正确! </span>","null","","","","","","","","","","","","","","","","","","","","","","","feedback_test"
"","","","","","psychophysics","192","711436","0.0-9.1-0.1-0.40","788","","f","","","","","","","","","","","","","key","f","16.666000000000448","720","446","f","true","img/S_ambi40.png","好人","prac_word_first",""
"","","","","","html-keyboard-response","193","711742","0.0-9.1-0.1-1.40","null","<span style='color:GreenYellow; font-size: 70px;'>正确! </span>","null","","","","","","","","","","","","","","","","","","","","","","","feedback_test"
"","","","","","psychophysics","194","714098","0.0-9.1-0.1-0.41","1200","","j","","","","","","","","","","","","","key","j","16.665999999999933","720","446","f","false","img/S_ambi40.png","常人","prac_word_first",""
"","","","","","html-keyboard-response","195","714401","0.0-9.1-0.1-1.41","null","<span style='color:red; font-size: 70px;'>错误! </span>","null","","","","","","","","","","","","","","","","","","","","","","","feedback_test"
"","","","","","psychophysics","196","717054","0.0-9.1-0.1-0.42","null","","null","","","","","","","","","","","","","key","null","16.666000000000018","720","446","f","false","img/T_ambi40.png","坏人","prac_word_first",""
"","","","","","html-keyboard-response","197","717360","0.0-9.1-0.1-1.42","null","<span class='add_' style='color:yellow; font-size: 70px;'> 太慢! </span>","null","","","","","","","","","","","","","","","","","","","","","","","feedback_test"
"","","","","","psychophysics","198","719979","0.0-9.1-0.1-0.43","1466","","j","","","","","","","","","","","","","key","j","16.665999999999677","720","446","j","true","img/T_ambi40.png","好人","prac_word_first",""
"","","","","","html-keyboard-response","199","720285","0.0-9.1-0.1-1.43","null","<span style='color:GreenYellow; font-size: 70px;'>正确! </span>","null","","","","","","","","","","","","","","","","","","","","","","","feedback_test"
"","","","","","psychophysics","200","722706","0.0-9.1-0.1-0.44","1270","","f","","","","","","","","","","","","","key","f","16.67503472222274","720","446","j","false","img/C_ambi40.png","常人","prac_word_first",""
"","","","","","html-keyboard-response","201","723010","0.0-9.1-0.1-1.44","null","<span style='color:red; font-size: 70px;'>错误! </span>","null","","","","","","","","","","","","","","","","","","","","","","","feedback_test"
"","","","","","psychophysics","202","724794","0.0-9.1-0.1-0.45","628","","j","","","","","","","","","","","","","key","j","16.666000000000185","720","446","j","true","img/C_ambi40.png","常人","prac_word_first",""
"","","","","","html-keyboard-response","203","725094","0.0-9.1-0.1-1.45","null","<span style='color:GreenYellow; font-size: 70px;'>正确! </span>","null","","","","","","","","","","","","","","","","","","","","","","","feedback_test"
"","","","","","psychophysics","204","727650","0.0-9.1-0.1-0.46","1399","","f","","","","","","","","","","","","","key","f","16.665999999999737","720","446","f","true","img/C_ambi40.png","好人","prac_word_first",""
"","","","","","html-keyboard-response","205","727952","0.0-9.1-0.1-1.46","null","<span style='color:GreenYellow; font-size: 70px;'>正确! </span>","null","","","","","","","","","","","","","","","","","","","","","","","feedback_test"
"","","","","","psychophysics","206","730618","0.0-9.1-0.1-0.47","null","","null","","","","","","","","","","","","","key","null","16.666000000000018","720","446","j","false","img/T_ambi40.png","好人","prac_word_first",""
"","","","","","html-keyboard-response","207","730924","0.0-9.1-0.1-1.47","null","<span class='add_' style='color:yellow; font-size: 70px;'> 太慢! </span>","null","","","","","","","","","","","","","","","","","","","","","","","feedback_test"
"","","","","","html-keyboard-response","208","732991","0.0-9.1-1.1-0.1","2064","<style>.context{color:white; font-size: 35px; line-height:40px}</style>                              <div><p class='context'>您正确回答了58% 的试次。</p><p class='context'>您的平均反应时为1008毫秒。</p>"," ","","","","","","","","","","","","","","","","","","","","","","",""
"","","","","","instructions","209","738491","0.0-9.1-1.1-1.1","5496","","","","","","","","","","","","","","[{""page_index"":0,""viewing_time"":1946},{""page_index"":1,""viewing_time"":2200},{""page_index"":2,""viewing_time"":1349}]","","","","","","","","","","",""
"","","","","","psychophysics","210","740757","0.0-9.2-0.2-0.48","1111","","j","","","","","","","","","","","","","key","j","16.675637037037113","720","446","j","true","img/C_ambi40.png","常人","prac_word_first",""
"","","","","","html-keyboard-response","211","741060","0.0-9.2-0.2-1.48","null","<span style='color:GreenYellow; font-size: 70px;'>正确! </span>","null","","","","","","","","","","","","","","","","","","","","","","","feedback_test"
"","","","","","psychophysics","212","743713","0.0-9.2-0.2-0.49","null","","null","","","","","","","","","","","","","key","null","16.666000000000018","720","446","f","false","img/T_ambi40.png","坏人","prac_word_first",""
"","","","","","html-keyboard-response","213","744018","0.0-9.2-0.2-1.49","null","<span class='add_' style='color:yellow; font-size: 70px;'> 太慢! </span>","null","","","","","","","","","","","","","","","","","","","","","","","feedback_test"
"","","","","","psychophysics","214","746474","0.0-9.2-0.2-0.50","1304","","j","","","","","","","","","","","","","key","j","16.66600000000023","720","446","j","true","img/S_ambi40.png","坏人","prac_word_first",""
"","","","","","html-keyboard-response","215","746775","0.0-9.2-0.2-1.50","null","<span style='color:GreenYellow; font-size: 70px;'>正确! </span>","null","","","","","","","","","","","","","","","","","","","","","","","feedback_test"
"","","","","","psychophysics","216","748867","0.0-9.2-0.2-0.51","939","","f","","","","","","","","","","","","","key","f","16.666000000000256","720","446","f","true","img/S_ambi40.png","好人","prac_word_first",""
"","","","","","html-keyboard-response","217","749183","0.0-9.2-0.2-1.51","null","<span style='color:GreenYellow; font-size: 70px;'>正确! </span>","null","","","","","","","","","","","","","","","","","","","","","","","feedback_test"
"","","","","","psychophysics","218","751410","0.0-9.2-0.2-0.52","1075","","j","","","","","","","","","","","","","key","j","16.665999999999848","720","446","f","false","img/T_ambi40.png","常人","prac_word_first",""
"","","","","","html-keyboard-response","219","751712","0.0-9.2-0.2-1.52","null","<span style='color:red; font-size: 70px;'>错误! </span>","null","","","","","","","","","","","","","","","","","","","","","","","feedback_test"
"","","","","","psychophysics","220","753780","0.0-9.2-0.2-0.53","912","","j","","","","","","","","","","","","","key","j","16.665999999999567","720","446","j","true","img/C_ambi40.png","常人","prac_word_first",""
"","","","","","html-keyboard-response","221","754082","0.0-9.2-0.2-1.53","null","<span style='color:GreenYellow; font-size: 70px;'>正确! </span>","null","","","","","","","","","","","","","","","","","","","","","","","feedback_test"
"","","","","","psychophysics","222","756338","0.0-9.2-0.2-0.54","1104","","f","","","","","","","","","","","","","key","f","16.666000000000242","720","446","f","true","img/C_ambi40.png","坏人","prac_word_first",""
"","","","","","html-keyboard-response","223","756643","0.0-9.2-0.2-1.54","null","<span style='color:GreenYellow; font-size: 70px;'>正确! </span>","null","","","","","","","","","","","","","","","","","","","","","","","feedback_test"
"","","","","","psychophysics","224","759192","0.0-9.2-0.2-0.55","1396","","j","","","","","","","","","","","","","key","j","16.665999999999737","720","446","f","false","img/S_ambi40.png","常人","prac_word_first",""
"","","","","","html-keyboard-response","225","759493","0.0-9.2-0.2-1.55","null","<span style='color:red; font-size: 70px;'>错误! </span>","null","","","","","","","","","","","","","","","","","","","","","","","feedback_test"
"","","","","","psychophysics","226","761647","0.0-9.2-0.2-0.56","999","","j","","","","","","","","","","","","","key","j","16.676164062499993","720","446","j","true","img/S_ambi40.png","坏人","prac_word_first",""
"","","","","","html-keyboard-response","227","761951","0.0-9.2-0.2-1.56","null","<span style='color:GreenYellow; font-size: 70px;'>正确! </span>","null","","","","","","","","","","","","","","","","","","","","","","","feedback_test"
"","","","","","psychophysics","228","763725","0.0-9.2-0.2-0.57","622","","j","","","","","","","","","","","","","key","j","16.666000000000487","720","446","j","true","img/T_ambi40.png","好人","prac_word_first",""
"","","","","","html-keyboard-response","229","764026","0.0-9.2-0.2-1.57","null","<span style='color:GreenYellow; font-size: 70px;'>正确! </span>","null","","","","","","","","","","","","","","","","","","","","","","","feedback_test"
"","","","","","psychophysics","230","766298","0.0-9.2-0.2-0.58","1116","","j","","","","","","","","","","","","","key","j","16.66599999999938","720","446","j","true","img/T_ambi40.png","好人","prac_word_first",""
"","","","","","html-keyboard-response","231","766602","0.0-9.2-0.2-1.58","null","<span style='color:GreenYellow; font-size: 70px;'>正确! </span>","null","","","","","","","","","","","","","","","","","","","","","","","feedback_test"
"","","","","","psychophysics","232","768592","0.0-9.2-0.2-0.59","838","","f","","","","","","","","","","","","","key","f","16.665999999999904","720","446","f","true","img/C_ambi40.png","好人","prac_word_first",""
"","","","","","html-keyboard-response","233","768896","0.0-9.2-0.2-1.59","null","<span style='color:GreenYellow; font-size: 70px;'>正确! </span>","null","","","","","","","","","","","","","","","","","","","","","","","feedback_test"
"","","","","","psychophysics","234","771161","0.0-9.2-0.2-0.60","1110","","j","","","","","","","","","","","","","key","j","16.666000000000242","720","446","j","true","img/S_ambi40.png","坏人","prac_word_first",""
"","","","","","html-keyboard-response","235","771467","0.0-9.2-0.2-1.60","null","<span style='color:GreenYellow; font-size: 70px;'>正确! </span>","null","","","","","","","","","","","","","","","","","","","","","","","feedback_test"
"","","","","","psychophysics","236","773185","0.0-9.2-0.2-0.61","566","","j","","","","","","","","","","","","","key","j","16.66600000000029","720","446","j","true","img/T_ambi40.png","好人","prac_word_first",""
"","","","","","html-keyboard-response","237","773488","0.0-9.2-0.2-1.61","null","<span style='color:GreenYellow; font-size: 70px;'>正确! </span>","null","","","","","","","","","","","","","","","","","","","","","","","feedback_test"
"","","","","","psychophysics","238","775128","0.0-9.2-0.2-0.62","485","","j","","","","","","","","","","","","","key","j","16.66600000000074","720","446","j","true","img/T_ambi40.png","好人","prac_word_first",""
"","","","","","html-keyboard-response","239","775431","0.0-9.2-0.2-1.62","null","<span style='color:GreenYellow; font-size: 70px;'>正确! </span>","null","","","","","","","","","","","","","","","","","","","","","","","feedback_test"
"","","","","","psychophysics","240","777376","0.0-9.2-0.2-0.63","792","","f","","","","","","","","","","","","","key","f","16.665999999999446","720","446","f","true","img/S_ambi40.png","好人","prac_word_first",""
"","","","","","html-keyboard-response","241","777678","0.0-9.2-0.2-1.63","null","<span style='color:GreenYellow; font-size: 70px;'>正确! </span>","null","","","","","","","","","","","","","","","","","","","","","","","feedback_test"
"","","","","","psychophysics","242","779678","0.0-9.2-0.2-0.64","845","","j","","","","","","","","","","","","","key","j","16.66600000000062","720","446","j","true","img/C_ambi40.png","常人","prac_word_first",""
"","","","","","html-keyboard-response","243","779984","0.0-9.2-0.2-1.64","null","<span style='color:GreenYellow; font-size: 70px;'>正确! </span>","null","","","","","","","","","","","","","","","","","","","","","","","feedback_test"
"","","","","","psychophysics","244","782301","0.0-9.2-0.2-0.65","1166","","j","","","","","","","","","","","","","key","j","16.675496350365425","720","446","j","true","img/C_ambi40.png","常人","prac_word_first",""
"","","","","","html-keyboard-response","245","782603","0.0-9.2-0.2-1.65","null","<span style='color:GreenYellow; font-size: 70px;'>正确! </span>","null","","","","","","","","","","","","","","","","","","","","","","","feedback_test"
"","","","","","psychophysics","246","784541","0.0-9.2-0.2-0.66","787","","f","","","","","","","","","","","","","key","f","16.665999999999716","720","446","f","true","img/S_ambi40.png","常人","prac_word_first",""
"","","","","","html-keyboard-response","247","784845","0.0-9.2-0.2-1.66","null","<span style='color:GreenYellow; font-size: 70px;'>正确! </span>","null","","","","","","","","","","","","","","","","","","","","","","","feedback_test"
"","","","","","psychophysics","248","786573","0.0-9.2-0.2-0.67","572","","j","","","","","","","","","","","","","key","j","16.665999999999983","720","446","f","false","img/C_ambi40.png","好人","prac_word_first",""
"","","","","","html-keyboard-response","249","786876","0.0-9.2-0.2-1.67","null","<span style='color:red; font-size: 70px;'>错误! </span>","null","","","","","","","","","","","","","","","","","","","","","","","feedback_test"
"","","","","","psychophysics","250","788992","0.0-9.2-0.2-0.68","963","","f","","","","","","","","","","","","","key","f","16.665999999999748","720","446","f","true","img/T_ambi40.png","坏人","prac_word_first",""
"","","","","","html-keyboard-response","251","789297","0.0-9.2-0.2-1.68","null","<span style='color:GreenYellow; font-size: 70px;'>正确! </span>","null","","","","","","","","","","","","","","","","","","","","","","","feedback_test"
"","","","","","psychophysics","252","791776","0.0-9.2-0.2-0.69","1325","","f","","","","","","","","","","","","","key","f","16.666000000000587","720","446","f","true","img/C_ambi40.png","坏人","prac_word_first",""
"","","","","","html-keyboard-response","253","792079","0.0-9.2-0.2-1.69","null","<span style='color:GreenYellow; font-size: 70px;'>正确! </span>","null","","","","","","","","","","","","","","","","","","","","","","","feedback_test"
"","","","","","psychophysics","254","794151","0.0-9.2-0.2-0.70","916","","j","","","","","","","","","","","","","key","j","16.665999999999567","720","446","j","true","img/S_ambi40.png","坏人","prac_word_first",""
"","","","","","html-keyboard-response","255","794453","0.0-9.2-0.2-1.70","null","<span style='color:GreenYellow; font-size: 70px;'>正确! </span>","null","","","","","","","","","","","","","","","","","","","","","","","feedback_test"
"","","","","","psychophysics","256","797058","0.0-9.2-0.2-0.71","1449","","f","","","","","","","","","","","","","key","f","16.66599999999988","720","446","f","true","img/T_ambi40.png","常人","prac_word_first",""
"","","","","","html-keyboard-response","257","797359","0.0-9.2-0.2-1.71","null","<span style='color:GreenYellow; font-size: 70px;'>正确! </span>","null","","","","","","","","","","","","","","","","","","","","","","","feedback_test"
"","","","","","html-keyboard-response","258","800009","0.0-10.0","2648","<style>.context{color:white; font-size: 35px; line-height:40px}</style>                              <div><p class='context'>您正确回答了83% 的试次。</p><p class='context'>您的平均反应时为967毫秒。</p><p class='context'>恭喜您完成练习。按任意键进入<span style='color: yellow;'>图形和文字同时呈现条件</span>的练习。</p></div>"," ","","","","","","","","","","","","","","","","","","","","","","",""
"","","","","","psychophysics","259","802518","0.0-11.0-0.0-0.0","null","","null","","","","","","","","","","","","","key","null","16.674738255033315","720","446","f","false","img/C_ambi40.png","好人","prac_simultaneous",""
"","","","","","html-keyboard-response","260","802822","0.0-11.0-0.0-1.0","null","<span class='add_' style='color:yellow; font-size: 70px;'> 太慢! </span>","null","","","","","","","","","","","","","","","","","","","","","","","feedback_test"
"","","","","","psychophysics","261","805337","0.0-11.0-0.0-0.1","null","","null","","","","","","","","","","","","","key","null","16.666000000000157","720","446","j","false","img/C_ambi40.png","常人","prac_simultaneous",""
"","","","","","html-keyboard-response","262","805643","0.0-11.0-0.0-1.1","null","<span class='add_' style='color:yellow; font-size: 70px;'> 太慢! </span>","null","","","","","","","","","","","","","","","","","","","","","","","feedback_test"
"","","","","","psychophysics","263","808160","0.0-11.0-0.0-0.2","null","","null","","","","","","","","","","","","","key","null","16.666000000000157","720","446","f","false","img/T_ambi40.png","坏人","prac_simultaneous",""
"","","","","","html-keyboard-response","264","808463","0.0-11.0-0.0-1.2","null","<span class='add_' style='color:yellow; font-size: 70px;'> 太慢! </span>","null","","","","","","","","","","","","","","","","","","","","","","","feedback_test"
"","","","","","psychophysics","265","810980","0.0-11.0-0.0-0.3","null","","null","","","","","","","","","","","","","key","null","16.666000000000157","720","446","f","false","img/C_ambi40.png","坏人","prac_simultaneous",""
"","","","","","html-keyboard-response","266","811283","0.0-11.0-0.0-1.3","null","<span class='add_' style='color:yellow; font-size: 70px;'> 太慢! </span>","null","","","","","","","","","","","","","","","","","","","","","","","feedback_test"
"","","","","","psychophysics","267","813209","0.0-11.0-0.0-0.4","925","","j","","","","","","","","","","","","","key","j","16.665999999999993","720","446","j","true","img/T_ambi40.png","好人","prac_simultaneous",""
"","","","","","html-keyboard-response","268","813515","0.0-11.0-0.0-1.4","null","<span style='color:GreenYellow; font-size: 70px;'>正确! </span>","null","","","","","","","","","","","","","","","","","","","","","","","feedback_test"
"","","","","","psychophysics","269","815176","0.0-11.0-0.0-0.5","658","","j","","","","","","","","","","","","","key","j","16.666000000000086","720","446","j","true","img/T_ambi40.png","好人","prac_simultaneous",""
"","","","","","html-keyboard-response","270","815479","0.0-11.0-0.0-1.5","null","<span style='color:GreenYellow; font-size: 70px;'>正确! </span>","null","","","","","","","","","","","","","","","","","","","","","","","feedback_test"
"","","","","","psychophysics","271","817543","0.0-11.0-0.0-0.6","1059","","j","","","","","","","","","","","","","key","j","16.666000000000516","720","446","j","true","img/S_ambi40.png","坏人","prac_simultaneous",""
"","","","","","html-keyboard-response","272","817844","0.0-11.0-0.0-1.6","null","<span style='color:GreenYellow; font-size: 70px;'>正确! </span>","null","","","","","","","","","","","","","","","","","","","","","","","feedback_test"
"","","","","","psychophysics","273","820257","0.0-11.0-0.0-0.7","1410","","f","","","","","","","","","","","","","key","f","16.665999999999865","720","446","f","true","img/S_ambi40.png","好人","prac_simultaneous",""
"","","","","","html-keyboard-response","274","820563","0.0-11.0-0.0-1.7","null","<span style='color:GreenYellow; font-size: 70px;'>正确! </span>","null","","","","","","","","","","","","","","","","","","","","","","","feedback_test"
"","","","","","psychophysics","275","823042","0.0-11.0-0.0-0.8","1474","","f","","","","","","","","","","","","","key","f","16.674790540540975","720","446","f","true","img/S_ambi40.png","常人","prac_simultaneous",""
"","","","","","html-keyboard-response","276","823342","0.0-11.0-0.0-1.8","null","<span style='color:GreenYellow; font-size: 70px;'>正确! </span>","null","","","","","","","","","","","","","","","","","","","","","","","feedback_test"
"","","","","","psychophysics","277","825313","0.0-11.0-0.0-0.9","968","","j","","","","","","","","","","","","","key","j","16.666000000000174","720","446","j","true","img/C_ambi40.png","常人","prac_simultaneous",""
"","","","","","html-keyboard-response","278","825617","0.0-11.0-0.0-1.9","null","<span style='color:GreenYellow; font-size: 70px;'>正确! </span>","null","","","","","","","","","","","","","","","","","","","","","","","feedback_test"
"","","","","","psychophysics","279","827717","0.0-11.0-0.0-0.10","1098","","j","","","","","","","","","","","","","key","j","16.666000000000256","720","446","j","true","img/S_ambi40.png","坏人","prac_simultaneous",""
"","","","","","html-keyboard-response","280","828018","0.0-11.0-0.0-1.10","null","<span style='color:GreenYellow; font-size: 70px;'>正确! </span>","null","","","","","","","","","","","","","","","","","","","","","","","feedback_test"
"","","","","","psychophysics","281","829801","0.0-11.0-0.0-0.11","782","","f","","","","","","","","","","","","","key","f","16.666000000000487","720","446","f","true","img/T_ambi40.png","常人","prac_simultaneous",""
"","","","","","html-keyboard-response","282","830107","0.0-11.0-0.0-1.11","null","<span style='color:GreenYellow; font-size: 70px;'>正确! </span>","null","","","","","","","","","","","","","","","","","","","","","","","feedback_test"
"","","","","","psychophysics","283","832280","0.0-11.0-0.0-0.12","1166","","f","","","","","","","","","","","","","key","f","16.665999999999922","720","446","f","true","img/C_ambi40.png","好人","prac_simultaneous",""
"","","","","","html-keyboard-response","284","832584","0.0-11.0-0.0-1.12","null","<span style='color:GreenYellow; font-size: 70px;'>正确! </span>","null","","","","","","","","","","","","","","","","","","","","","","","feedback_test"
"","","","","","psychophysics","285","834663","0.0-11.0-0.0-0.13","1078","","f","","","","","","","","","","","","","key","f","16.665999999999567","720","446","f","true","img/S_ambi40.png","常人","prac_simultaneous",""
"","","","","","html-keyboard-response","286","834968","0.0-11.0-0.0-1.13","null","<span style='color:GreenYellow; font-size: 70px;'>正确! </span>","null","","","","","","","","","","","","","","","","","","","","","","","feedback_test"
"","","","","","psychophysics","287","836909","0.0-11.0-0.0-0.14","939","","f","","","","","","","","","","","","","key","f","16.665999999999716","720","446","f","true","img/T_ambi40.png","常人","prac_simultaneous",""
"","","","","","html-keyboard-response","288","837215","0.0-11.0-0.0-1.14","null","<span style='color:GreenYellow; font-size: 70px;'>正确! </span>","null","","","","","","","","","","","","","","","","","","","","","","","feedback_test"
"","","","","","psychophysics","289","839139","0.0-11.0-0.0-0.15","921","","f","","","","","","","","","","","","","key","f","16.66600000000073","720","446","f","true","img/S_ambi40.png","好人","prac_simultaneous",""
"","","","","","html-keyboard-response","290","839442","0.0-11.0-0.0-1.15","null","<span style='color:GreenYellow; font-size: 70px;'>正确! </span>","null","","","","","","","","","","","","","","","","","","","","","","","feedback_test"
"","","","","","psychophysics","291","841809","0.0-11.0-0.0-0.16","1365","","j","","","","","","","","","","","","","key","j","16.67523404255308","720","446","j","true","img/T_ambi40.png","好人","prac_simultaneous",""
"","","","","","html-keyboard-response","292","842111","0.0-11.0-0.0-1.16","null","<span style='color:GreenYellow; font-size: 70px;'>正确! </span>","null","","","","","","","","","","","","","","","","","","","","","","","feedback_test"
"","","","","","psychophysics","293","844109","0.0-11.0-0.0-0.17","992","","j","","","","","","","","","","","","","key","j","16.66599999999964","720","446","j","true","img/S_ambi40.png","坏人","prac_simultaneous",""
"","","","","","html-keyboard-response","294","844412","0.0-11.0-0.0-1.17","null","<span style='color:GreenYellow; font-size: 70px;'>正确! </span>","null","","","","","","","","","","","","","","","","","","","","","","","feedback_test"
"","","","","","psychophysics","295","846233","0.0-11.0-0.0-0.18","820","","j","","","","","","","","","","","","","key","j","16.665999999999595","720","446","j","true","img/C_ambi40.png","常人","prac_simultaneous",""
"","","","","","html-keyboard-response","296","846538","0.0-11.0-0.0-1.18","null","<span style='color:GreenYellow; font-size: 70px;'>正确! </span>","null","","","","","","","","","","","","","","","","","","","","","","","feedback_test"
"","","","","","psychophysics","297","848394","0.0-11.0-0.0-0.19","852","","f","","","","","","","","","","","","","key","f","16.666000000000086","720","446","f","true","img/C_ambi40.png","坏人","prac_simultaneous",""
"","","","","","html-keyboard-response","298","848697","0.0-11.0-0.0-1.19","null","<span style='color:GreenYellow; font-size: 70px;'>正确! </span>","null","","","","","","","","","","","","","","","","","","","","","","","feedback_test"
"","","","","","psychophysics","299","850865","0.0-11.0-0.0-0.20","1164","","j","","","","","","","","","","","","","key","j","16.666000000000825","720","446","j","true","img/C_ambi40.png","常人","prac_simultaneous",""
"","","","","","html-keyboard-response","300","851167","0.0-11.0-0.0-1.20","null","<span style='color:GreenYellow; font-size: 70px;'>正确! </span>","null","","","","","","","","","","","","","","","","","","","","","","","feedback_test"
"","","","","","psychophysics","301","853323","0.0-11.0-0.0-0.21","1154","","j","","","","","","","","","","","","","key","j","16.666000000000167","720","446","f","false","img/T_ambi40.png","坏人","prac_simultaneous",""
"","","","","","html-keyboard-response","302","853627","0.0-11.0-0.0-1.21","null","<span style='color:red; font-size: 70px;'>错误! </span>","null","","","","","","","","","","","","","","","","","","","","","","","feedback_test"
"","","","","","psychophysics","303","855634","0.0-11.0-0.0-0.22","1003","","j","","","","","","","","","","","","","key","j","16.66599999999964","720","446","j","true","img/S_ambi40.png","坏人","prac_simultaneous",""
"","","","","","html-keyboard-response","304","855936","0.0-11.0-0.0-1.22","null","<span style='color:GreenYellow; font-size: 70px;'>正确! </span>","null","","","","","","","","","","","","","","","","","","","","","","","feedback_test"
"","","","","","psychophysics","305","857830","0.0-11.0-0.0-0.23","890","","f","","","","","","","","","","","","","key","f","16.665999999999517","720","446","j","false","img/T_ambi40.png","好人","prac_simultaneous",""
"","","","","","html-keyboard-response","306","858134","0.0-11.0-0.0-1.23","null","<span style='color:red; font-size: 70px;'>错误! </span>","null","","","","","","","","","","","","","","","","","","","","","","","feedback_test"
"","","","","","html-keyboard-response","307","861956","0.0-12.0","3819","<style>.context{color:white; font-size: 35px; line-height:40px}</style>                              <div><p class='context'>您正确回答了75% 的试次。</p><p class='context'>您的平均反应时为1037毫秒。</p><p class='context'>恭喜您完成练习。按任意键进入正式实验。</p><p class='footer' style='font-size: 35px; line-height:40px;'>请在进入正式实验实验之前将您的<span style='color: lightgreen;'>食指</span>放在电脑键盘的相应键位上进行按键。</p>"," ","","","","","","","","","","","","","","","","","","","","","","",""
"","","","","","html-keyboard-response","308","875313","0.0-13.0-2.0-0.0","13352","
      <p>请您将手指放在按键上，准备进入呈现顺序为<span style='color: yellow;'>图形和文字同时呈现条件</span>的正式匹配任务</p>
      <p> <div style = ""color: green""><按任意键进入下一阶段的匹配任务></div></p>
      "," ","","","","","","","","","","","","","","","","","","","","","","",""
"","","","","","psychophysics","309","877818","0.0-13.0-2.0-1.0-0.0-0.0","null","","null","","","","","","","","","","","","","key","null","16.671832214765118","720","446","f","false","img/S_ambi40.png","常人","simultaneous",""
"","","","","","html-keyboard-response","310","878120","0.0-13.0-2.0-1.0-0.0-1.0","null","<span class='add_' style='color:yellow; font-size: 70px;'> 太慢! </span>","null","","","","","","","","","","","","","","","","","","","","","","","feedback_test"
"","","","","","psychophysics","311","880331","0.0-13.0-2.0-1.0-0.0-0.1","1205","","f","","","","","","","","","","","","","key","f","16.666000000000327","720","446","f","true","img/T_ambi40.png","坏人","simultaneous",""
"","","","","","html-keyboard-response","312","880634","0.0-13.0-2.0-1.0-0.0-1.1","null","<span style='color:GreenYellow; font-size: 70px;'>正确! </span>","null","","","","","","","","","","","","","","","","","","","","","","","feedback_test"
"","","","","","psychophysics","313","882796","0.0-13.0-2.0-1.0-0.0-0.2","1161","","j","","","","","","","","","","","","","key","j","16.666000000000167","720","446","f","false","img/C_ambi40.png","坏人","simultaneous",""
"","","","","","html-keyboard-response","314","883100","0.0-13.0-2.0-1.0-0.0-1.2","null","<span style='color:red; font-size: 70px;'>错误! </span>","null","","","","","","","","","","","","","","","","","","","","","","","feedback_test"
"","","","","","psychophysics","315","885478","0.0-13.0-2.0-1.0-0.0-0.3","1377","","j","","","","","","","","","","","","","key","j","16.66599999999971","720","446","j","true","img/C_ambi40.png","常人","simultaneous",""
"","","","","","html-keyboard-response","316","885784","0.0-13.0-2.0-1.0-0.0-1.3","null","<span style='color:GreenYellow; font-size: 70px;'>正确! </span>","null","","","","","","","","","","","","","","","","","","","","","","","feedback_test"
"","","","","","psychophysics","317","887674","0.0-13.0-2.0-1.0-0.0-0.4","886","","j","","","","","","","","","","","","","key","j","16.666000000000558","720","446","j","true","img/S_ambi40.png","坏人","simultaneous",""
"","","","","","html-keyboard-response","318","887975","0.0-13.0-2.0-1.0-0.0-1.4","null","<span style='color:GreenYellow; font-size: 70px;'>正确! </span>","null","","","","","","","","","","","","","","","","","","","","","","","feedback_test"
"","","","","","psychophysics","319","889661","0.0-13.0-2.0-1.0-0.0-0.5","683","","j","","","","","","","","","","","","","key","j","16.665999999999766","720","446","j","true","img/T_ambi40.png","好人","simultaneous",""
"","","","","","html-keyboard-response","320","889967","0.0-13.0-2.0-1.0-0.0-1.5","null","<span style='color:GreenYellow; font-size: 70px;'>正确! </span>","null","","","","","","","","","","","","","","","","","","","","","","","feedback_test"
"","","","","","psychophysics","321","891709","0.0-13.0-2.0-1.0-0.0-0.6","740","","j","","","","","","","","","","","","","key","j","16.665999999999983","720","446","j","true","img/S_ambi40.png","坏人","simultaneous",""
"","","","","","html-keyboard-response","322","892012","0.0-13.0-2.0-1.0-0.0-1.6","null","<span style='color:GreenYellow; font-size: 70px;'>正确! </span>","null","","","","","","","","","","","","","","","","","","","","","","","feedback_test"
"","","","","","psychophysics","323","893997","0.0-13.0-2.0-1.0-0.0-0.7","983","","f","","","","","","","","","","","","","key","f","16.665999999999904","720","446","f","true","img/T_ambi40.png","常人","simultaneous",""
"","","","","","html-keyboard-response","324","894301","0.0-13.0-2.0-1.0-0.0-1.7","null","<span style='color:GreenYellow; font-size: 70px;'>正确! </span>","null","","","","","","","","","","","","","","","","","","","","","","","feedback_test"
"","","","","","psychophysics","325","896092","0.0-13.0-2.0-1.0-0.0-0.8","790","","j","","","","","","","","","","","","","key","j","16.678273584906734","720","446","j","true","img/T_ambi40.png","好人","simultaneous",""
"","","","","","html-keyboard-response","326","896394","0.0-13.0-2.0-1.0-0.0-1.8","null","<span style='color:GreenYellow; font-size: 70px;'>正确! </span>","null","","","","","","","","","","","","","","","","","","","","","","","feedback_test"
"","","","","","psychophysics","327","898192","0.0-13.0-2.0-1.0-0.0-0.9","792","","f","","","","","","","","","","","","","key","f","16.665999999999887","720","446","f","true","img/C_ambi40.png","好人","simultaneous",""
"","","","","","html-keyboard-response","328","898493","0.0-13.0-2.0-1.0-0.0-1.9","null","<span style='color:GreenYellow; font-size: 70px;'>正确! </span>","null","","","","","","","","","","","","","","","","","","","","","","","feedback_test"
"","","","","","psychophysics","329","900638","0.0-13.0-2.0-1.0-0.0-0.10","1140","","j","","","","","","","","","","","","","key","j","16.666000000000167","720","446","f","false","img/S_ambi40.png","好人","simultaneous",""
"","","","","","html-keyboard-response","330","900942","0.0-13.0-2.0-1.0-0.0-1.10","null","<span style='color:red; font-size: 70px;'>错误! </span>","null","","","","","","","","","","","","","","","","","","","","","","","feedback_test"
"","","","","","psychophysics","331","902758","0.0-13.0-2.0-1.0-0.0-0.11","810","","j","","","","","","","","","","","","","key","j","16.665999999999595","720","446","j","true","img/C_ambi40.png","常人","simultaneous",""
"","","","","","html-keyboard-response","332","903062","0.0-13.0-2.0-1.0-0.0-1.11","null","<span style='color:GreenYellow; font-size: 70px;'>正确! </span>","null","","","","","","","","","","","","","","","","","","","","","","","feedback_test"
"","","","","","psychophysics","333","904911","0.0-13.0-2.0-1.0-0.0-0.12","843","","f","","","","","","","","","","","","","key","f","16.666000000000086","720","446","f","true","img/S_ambi40.png","常人","simultaneous",""
"","","","","","html-keyboard-response","334","905216","0.0-13.0-2.0-1.0-0.0-1.12","null","<span style='color:GreenYellow; font-size: 70px;'>正确! </span>","null","","","","","","","","","","","","","","","","","","","","","","","feedback_test"
"","","","","","psychophysics","335","907095","0.0-13.0-2.0-1.0-0.0-0.13","878","","j","","","","","","","","","","","","","key","j","16.665999999999798","720","446","j","true","img/C_ambi40.png","常人","simultaneous",""
"","","","","","html-keyboard-response","336","907400","0.0-13.0-2.0-1.0-0.0-1.13","null","<span style='color:GreenYellow; font-size: 70px;'>正确! </span>","null","","","","","","","","","","","","","","","","","","","","","","","feedback_test"
"","","","","","psychophysics","337","908877","0.0-13.0-2.0-1.0-0.0-0.14","475","","j","","","","","","","","","","","","","key","j","16.666000000000448","720","446","j","true","img/C_ambi40.png","常人","simultaneous",""
"","","","","","html-keyboard-response","338","909180","0.0-13.0-2.0-1.0-0.0-1.14","null","<span style='color:GreenYellow; font-size: 70px;'>正确! </span>","null","","","","","","","","","","","","","","","","","","","","","","","feedback_test"
"","","","","","psychophysics","339","911291","0.0-13.0-2.0-1.0-0.0-0.15","1107","","j","","","","","","","","","","","","","key","j","16.666000000000672","720","446","j","true","img/T_ambi40.png","好人","simultaneous",""
"","","","","","html-keyboard-response","340","911594","0.0-13.0-2.0-1.0-0.0-1.15","null","<span style='color:GreenYellow; font-size: 70px;'>正确! </span>","null","","","","","","","","","","","","","","","","","","","","","","","feedback_test"
"","","","","","psychophysics","341","913213","0.0-13.0-2.0-1.0-0.0-0.16","616","","j","","","","","","","","","","","","","key","j","16.665999999999865","720","446","f","false","img/T_ambi40.png","常人","simultaneous",""
"","","","","","html-keyboard-response","342","913517","0.0-13.0-2.0-1.0-0.0-1.16","null","<span style='color:red; font-size: 70px;'>错误! </span>","null","","","","","","","","","","","","","","","","","","","","","","","feedback_test"
"","","","","","psychophysics","343","915558","0.0-13.0-2.0-1.0-0.0-0.17","1040","","j","","","","","","","","","","","","","key","j","16.676752066115604","720","446","j","true","img/S_ambi40.png","坏人","simultaneous",""
"","","","","","html-keyboard-response","344","915858","0.0-13.0-2.0-1.0-0.0-1.17","null","<span style='color:GreenYellow; font-size: 70px;'>正确! </span>","null","","","","","","","","","","","","","","","","","","","","","","","feedback_test"
"","","","","","psychophysics","345","917875","0.0-13.0-2.0-1.0-0.0-0.18","1014","","j","","","","","","","","","","","","","key","j","16.66599999999938","720","446","j","true","img/S_ambi40.png","坏人","simultaneous",""
"","","","","","html-keyboard-response","346","918179","0.0-13.0-2.0-1.0-0.0-1.18","null","<span style='color:GreenYellow; font-size: 70px;'>正确! </span>","null","","","","","","","","","","","","","","","","","","","","","","","feedback_test"
"","","","","","psychophysics","347","919966","0.0-13.0-2.0-1.0-0.0-0.19","782","","f","","","","","","","","","","","","","key","f","16.666000000000185","720","446","f","true","img/T_ambi40.png","坏人","simultaneous",""
"","","","","","html-keyboard-response","348","920267","0.0-13.0-2.0-1.0-0.0-1.19","null","<span style='color:GreenYellow; font-size: 70px;'>正确! </span>","null","","","","","","","","","","","","","","","","","","","","","","","feedback_test"
"","","","","","psychophysics","349","922784","0.0-13.0-2.0-1.0-0.0-0.20","null","","null","","","","","","","","","","","","","key","null","16.66599999999959","720","446","f","false","img/S_ambi40.png","好人","simultaneous",""
"","","","","","html-keyboard-response","350","923088","0.0-13.0-2.0-1.0-0.0-1.20","null","<span class='add_' style='color:yellow; font-size: 70px;'> 太慢! </span>","null","","","","","","","","","","","","","","","","","","","","","","","feedback_test"
"","","","","","psychophysics","351","924990","0.0-13.0-2.0-1.0-0.0-0.21","898","","j","","","","","","","","","","","","","key","j","16.66599999999924","720","446","f","false","img/C_ambi40.png","好人","simultaneous",""
"","","","","","html-keyboard-response","352","925292","0.0-13.0-2.0-1.0-0.0-1.21","null","<span style='color:red; font-size: 70px;'>错误! </span>","null","","","","","","","","","","","","","","","","","","","","","","","feedback_test"
"","","","","","psychophysics","353","927421","0.0-13.0-2.0-1.0-0.0-0.22","1127","","f","","","","","","","","","","","","","key","f","16.665999999999503","720","446","f","true","img/C_ambi40.png","坏人","simultaneous",""
"","","","","","html-keyboard-response","354","927725","0.0-13.0-2.0-1.0-0.0-1.22","null","<span style='color:GreenYellow; font-size: 70px;'>正确! </span>","null","","","","","","","","","","","","","","","","","","","","","","","feedback_test"
"","","","","","psychophysics","355","929949","0.0-13.0-2.0-1.0-0.0-0.23","1220","","j","","","","","","","","","","","","","key","j","16.666000000000086","720","446","j","true","img/T_ambi40.png","好人","simultaneous",""
"","","","","","html-keyboard-response","356","930254","0.0-13.0-2.0-1.0-0.0-1.23","null","<span style='color:GreenYellow; font-size: 70px;'>正确! </span>","null","","","","","","","","","","","","","","","","","","","","","","","feedback_test"
"","","","","","psychophysics","357","931921","0.0-13.0-2.0-1.0-0.0-0.24","663","","j","","","","","","","","","","","","","key","j","16.66599999999891","720","446","j","true","img/T_ambi40.png","好人","simultaneous",""
"","","","","","html-keyboard-response","358","932225","0.0-13.0-2.0-1.0-0.0-1.24","null","<span style='color:GreenYellow; font-size: 70px;'>正确! </span>","null","","","","","","","","","","","","","","","","","","","","","","","feedback_test"
"","","","","","psychophysics","359","934224","0.0-13.0-2.0-1.0-0.0-0.25","992","","f","","","","","","","","","","","","","key","f","16.66599999999964","720","446","f","true","img/S_ambi40.png","好人","simultaneous",""
"","","","","","html-keyboard-response","360","934525","0.0-13.0-2.0-1.0-0.0-1.25","null","<span style='color:GreenYellow; font-size: 70px;'>正确! </span>","null","","","","","","","","","","","","","","","","","","","","","","","feedback_test"
"","","","","","psychophysics","361","936398","0.0-13.0-2.0-1.0-0.0-0.26","867","","j","","","","","","","","","","","","","key","j","16.677720720721368","720","446","f","false","img/C_ambi40.png","好人","simultaneous",""
"","","","","","html-keyboard-response","362","936704","0.0-13.0-2.0-1.0-0.0-1.26","null","<span style='color:red; font-size: 70px;'>错误! </span>","null","","","","","","","","","","","","","","","","","","","","","","","feedback_test"
"","","","","","psychophysics","363","938505","0.0-13.0-2.0-1.0-0.0-0.27","797","","f","","","","","","","","","","","","","key","f","16.665999999999887","720","446","f","true","img/T_ambi40.png","坏人","simultaneous",""
"","","","","","html-keyboard-response","364","938811","0.0-13.0-2.0-1.0-0.0-1.27","null","<span style='color:GreenYellow; font-size: 70px;'>正确! </span>","null","","","","","","","","","","","","","","","","","","","","","","","feedback_test"
"","","","","","psychophysics","365","941325","0.0-13.0-2.0-1.0-0.0-0.28","null","","null","","","","","","","","","","","","","key","null","16.666000000000157","720","446","j","false","img/C_ambi40.png","常人","simultaneous",""
"","","","","","html-keyboard-response","366","941630","0.0-13.0-2.0-1.0-0.0-1.28","null","<span class='add_' style='color:yellow; font-size: 70px;'> 太慢! </span>","null","","","","","","","","","","","","","","","","","","","","","","","feedback_test"
"","","","","","psychophysics","367","943538","0.0-13.0-2.0-1.0-0.0-0.29","903","","j","","","","","","","","","","","","","key","j","16.665999999999993","720","446","j","true","img/T_ambi40.png","好人","simultaneous",""
"","","","","","html-keyboard-response","368","943842","0.0-13.0-2.0-1.0-0.0-1.29","null","<span style='color:GreenYellow; font-size: 70px;'>正确! </span>","null","","","","","","","","","","","","","","","","","","","","","","","feedback_test"
"","","","","","psychophysics","369","946358","0.0-13.0-2.0-1.0-0.0-0.30","null","","null","","","","","","","","","","","","","key","null","16.666000000000157","720","446","f","false","img/S_ambi40.png","常人","simultaneous",""
"","","","","","html-keyboard-response","370","946661","0.0-13.0-2.0-1.0-0.0-1.30","null","<span class='add_' style='color:yellow; font-size: 70px;'> 太慢! </span>","null","","","","","","","","","","","","","","","","","","","","","","","feedback_test"
"","","","","","psychophysics","371","949178","0.0-13.0-2.0-1.0-0.0-0.31","null","","null","","","","","","","","","","","","","key","null","16.666000000000157","720","446","j","false","img/S_ambi40.png","坏人","simultaneous",""
"","","","","","html-keyboard-response","372","949483","0.0-13.0-2.0-1.0-0.0-1.31","null","<span class='add_' style='color:yellow; font-size: 70px;'> 太慢! </span>","null","","","","","","","","","","","","","","","","","","","","","","","feedback_test"
"","","","","","psychophysics","373","951830","0.0-13.0-2.0-1.0-0.0-0.32","1345","","f","","","","","","","","","","","","","key","f","16.665999999999322","720","446","f","true","img/T_ambi40.png","常人","simultaneous",""
"","","","","","html-keyboard-response","374","952133","0.0-13.0-2.0-1.0-0.0-1.32","null","<span style='color:GreenYellow; font-size: 70px;'>正确! </span>","null","","","","","","","","","","","","","","","","","","","","","","","feedback_test"
"","","","","","psychophysics","375","954262","0.0-13.0-2.0-1.0-0.0-0.33","1128","","j","","","","","","","","","","","","","key","j","16.665999999999748","720","446","j","true","img/S_ambi40.png","坏人","simultaneous",""
"","","","","","html-keyboard-response","376","954567","0.0-13.0-2.0-1.0-0.0-1.33","null","<span style='color:GreenYellow; font-size: 70px;'>正确! </span>","null","","","","","","","","","","","","","","","","","","","","","","","feedback_test"
"","","","","","psychophysics","377","956897","0.0-13.0-2.0-1.0-0.0-0.34","1329","","j","","","","","","","","","","","","","key","j","16.67542028985496","720","446","f","false","img/C_ambi40.png","坏人","simultaneous",""
"","","","","","html-keyboard-response","378","957201","0.0-13.0-2.0-1.0-0.0-1.34","null","<span style='color:red; font-size: 70px;'>错误! </span>","null","","","","","","","","","","","","","","","","","","","","","","","feedback_test"
"","","","","","psychophysics","379","959676","0.0-13.0-2.0-1.0-0.0-0.35","1473","","j","","","","","","","","","","","","","key","j","16.66600000000001","720","446","j","true","img/C_ambi40.png","常人","simultaneous",""
"","","","","","html-keyboard-response","380","959981","0.0-13.0-2.0-1.0-0.0-1.35","null","<span style='color:GreenYellow; font-size: 70px;'>正确! </span>","null","","","","","","","","","","","","","","","","","","","","","","","feedback_test"
"","","","","","psychophysics","381","962159","0.0-13.0-2.0-1.0-0.0-0.36","1175","","j","","","","","","","","","","","","","key","j","16.666000000000572","720","446","j","true","img/T_ambi40.png","好人","simultaneous",""
"","","","","","html-keyboard-response","382","962464","0.0-13.0-2.0-1.0-0.0-1.36","null","<span style='color:GreenYellow; font-size: 70px;'>正确! </span>","null","","","","","","","","","","","","","","","","","","","","","","","feedback_test"
"","","","","","psychophysics","383","964358","0.0-13.0-2.0-1.0-0.0-0.37","891","","j","","","","","","","","","","","","","key","j","16.66600000000027","720","446","j","true","img/S_ambi40.png","坏人","simultaneous",""
"","","","","","html-keyboard-response","384","964660","0.0-13.0-2.0-1.0-0.0-1.37","null","<span style='color:GreenYellow; font-size: 70px;'>正确! </span>","null","","","","","","","","","","","","","","","","","","","","","","","feedback_test"
"","","","","","psychophysics","385","966675","0.0-13.0-2.0-1.0-0.0-0.38","1013","","f","","","","","","","","","","","","","key","f","16.66599999999938","720","446","f","true","img/S_ambi40.png","常人","simultaneous",""
"","","","","","html-keyboard-response","386","966977","0.0-13.0-2.0-1.0-0.0-1.38","null","<span style='color:GreenYellow; font-size: 70px;'>正确! </span>","null","","","","","","","","","","","","","","","","","","","","","","","feedback_test"
"","","","","","psychophysics","387","969023","0.0-13.0-2.0-1.0-0.0-0.39","1043","","j","","","","","","","","","","","","","key","j","16.665999999999823","720","446","j","true","img/S_ambi40.png","坏人","simultaneous",""
"","","","","","html-keyboard-response","388","969328","0.0-13.0-2.0-1.0-0.0-1.39","null","<span style='color:GreenYellow; font-size: 70px;'>正确! </span>","null","","","","","","","","","","","","","","","","","","","","","","","feedback_test"
"","","","","","psychophysics","389","971124","0.0-13.0-2.0-1.0-0.0-0.40","791","","j","","","","","","","","","","","","","key","j","16.665999999999887","720","446","f","false","img/C_ambi40.png","好人","simultaneous",""
"","","","","","html-keyboard-response","390","971428","0.0-13.0-2.0-1.0-0.0-1.40","null","<span style='color:red; font-size: 70px;'>错误! </span>","null","","","","","","","","","","","","","","","","","","","","","","","feedback_test"
"","","","","","psychophysics","391","973163","0.0-13.0-2.0-1.0-0.0-0.41","729","","j","","","","","","","","","","","","","key","j","16.665999999999983","720","446","j","true","img/C_ambi40.png","常人","simultaneous",""
"","","","","","html-keyboard-response","392","973467","0.0-13.0-2.0-1.0-0.0-1.41","null","<span style='color:GreenYellow; font-size: 70px;'>正确! </span>","null","","","","","","","","","","","","","","","","","","","","","","","feedback_test"
"","","","","","psychophysics","393","975378","0.0-13.0-2.0-1.0-0.0-0.42","910","","f","","","","","","","","","","","","","key","f","16.66599999999924","720","446","f","true","img/C_ambi40.png","坏人","simultaneous",""
"","","","","","html-keyboard-response","394","975681","0.0-13.0-2.0-1.0-0.0-1.42","null","<span style='color:GreenYellow; font-size: 70px;'>正确! </span>","null","","","","","","","","","","","","","","","","","","","","","","","feedback_test"
"","","","","","psychophysics","395","977564","0.0-13.0-2.0-1.0-0.0-0.43","880","","j","","","","","","","","","","","","","key","j","16.677776785713963","720","446","j","true","img/T_ambi40.png","好人","simultaneous",""
"","","","","","html-keyboard-response","396","977867","0.0-13.0-2.0-1.0-0.0-1.43","null","<span style='color:GreenYellow; font-size: 70px;'>正确! </span>","null","","","","","","","","","","","","","","","","","","","","","","","feedback_test"
"","","","","","psychophysics","397","980124","0.0-13.0-2.0-1.0-0.0-0.44","1255","","j","","","","","","","","","","","","","key","j","16.66600000000048","720","446","f","false","img/T_ambi40.png","常人","simultaneous",""
"","","","","","html-keyboard-response","398","980427","0.0-13.0-2.0-1.0-0.0-1.44","null","<span style='color:red; font-size: 70px;'>错误! </span>","null","","","","","","","","","","","","","","","","","","","","","","","feedback_test"
"","","","","","psychophysics","399","982145","0.0-13.0-2.0-1.0-0.0-0.45","717","","j","","","","","","","","","","","","","key","j","16.66600000000029","720","446","j","true","img/C_ambi40.png","常人","simultaneous",""
"","","","","","html-keyboard-response","400","982450","0.0-13.0-2.0-1.0-0.0-1.45","null","<span style='color:GreenYellow; font-size: 70px;'>正确! </span>","null","","","","","","","","","","","","","","","","","","","","","","","feedback_test"
"","","","","","psychophysics","401","984957","0.0-13.0-2.0-1.0-0.0-0.46","1506","","j","","","","","","","","","","","","","key","j","16.66600000000037","720","446","f","false","img/T_ambi40.png","坏人","simultaneous",""
"","","","","","html-keyboard-response","402","985258","0.0-13.0-2.0-1.0-0.0-1.46","null","<span class='add_' style='color:yellow; font-size: 70px;'> 太慢! </span>","null","","","","","","","","","","","","","","","","","","","","","","","feedback_test"
"","","","","","psychophysics","403","987766","0.0-13.0-2.0-1.0-0.0-0.47","null","","null","","","","","","","","","","","","","key","null","16.66599999999959","720","446","f","false","img/S_ambi40.png","好人","simultaneous",""
"","","","","","html-keyboard-response","404","988067","0.0-13.0-2.0-1.0-0.0-1.47","null","<span class='add_' style='color:yellow; font-size: 70px;'> 太慢! </span>","null","","","","","","","","","","","","","","","","","","","","","","","feedback_test"
"","","","","","psychophysics","405","989891","0.0-13.0-2.0-1.0-0.0-0.48","816","","f","","","","","","","","","","","","","key","f","16.665999999999595","720","446","j","false","img/C_ambi40.png","常人","simultaneous",""
"","","","","","html-keyboard-response","406","990197","0.0-13.0-2.0-1.0-0.0-1.48","null","<span style='color:red; font-size: 70px;'>错误! </span>","null","","","","","","","","","","","","","","","","","","","","","","","feedback_test"
"","","","","","psychophysics","407","991824","0.0-13.0-2.0-1.0-0.0-0.49","624","","j","","","","","","","","","","","","","key","j","16.66600000000074","720","446","j","true","img/T_ambi40.png","好人","simultaneous",""
"","","","","","html-keyboard-response","408","992127","0.0-13.0-2.0-1.0-0.0-1.49","null","<span style='color:GreenYellow; font-size: 70px;'>正确! </span>","null","","","","","","","","","","","","","","","","","","","","","","","feedback_test"
"","","","","","psychophysics","409","994489","0.0-13.0-2.0-1.0-0.0-0.50","1356","","f","","","","","","","","","","","","","key","f","16.66599999999971","720","446","f","true","img/S_ambi40.png","常人","simultaneous",""
"","","","","","html-keyboard-response","410","994791","0.0-13.0-2.0-1.0-0.0-1.50","null","<span style='color:GreenYellow; font-size: 70px;'>正确! </span>","null","","","","","","","","","","","","","","","","","","","","","","","feedback_test"
"","","","","","psychophysics","411","996907","0.0-13.0-2.0-1.0-0.0-0.51","1112","","f","","","","","","","","","","","","","key","f","16.676341269841593","720","446","f","true","img/T_ambi40.png","坏人","simultaneous",""
"","","","","","html-keyboard-response","412","997209","0.0-13.0-2.0-1.0-0.0-1.51","null","<span style='color:GreenYellow; font-size: 70px;'>正确! </span>","null","","","","","","","","","","","","","","","","","","","","","","","feedback_test"
"","","","","","psychophysics","413","999657","0.0-13.0-2.0-1.0-0.0-0.52","1442","","f","","","","","","","","","","","","","key","f","16.66600000000023","720","446","f","true","img/C_ambi40.png","坏人","simultaneous",""
"","","","","","html-keyboard-response","414","999963","0.0-13.0-2.0-1.0-0.0-1.52","null","<span style='color:GreenYellow; font-size: 70px;'>正确! </span>","null","","","","","","","","","","","","","","","","","","","","","","","feedback_test"
"","","","","","psychophysics","415","1001879","0.0-13.0-2.0-1.0-0.0-0.53","913","","j","","","","","","","","","","","","","key","j","16.665999999999993","720","446","j","true","img/S_ambi40.png","坏人","simultaneous",""
"","","","","","html-keyboard-response","416","1002183","0.0-13.0-2.0-1.0-0.0-1.53","null","<span style='color:GreenYellow; font-size: 70px;'>正确! </span>","null","","","","","","","","","","","","","","","","","","","","","","","feedback_test"
"","","","","","psychophysics","417","1003984","0.0-13.0-2.0-1.0-0.0-0.54","800","","j","","","","","","","","","","","","","key","j","16.665999999999087","720","446","j","true","img/T_ambi40.png","好人","simultaneous",""
"","","","","","html-keyboard-response","418","1004290","0.0-13.0-2.0-1.0-0.0-1.54","null","<span style='color:GreenYellow; font-size: 70px;'>正确! </span>","null","","","","","","","","","","","","","","","","","","","","","","","feedback_test"
"","","","","","psychophysics","419","1006132","0.0-13.0-2.0-1.0-0.0-0.55","837","","j","","","","","","","","","","","","","key","j","16.665999999999308","720","446","f","false","img/C_ambi40.png","好人","simultaneous",""
"","","","","","html-keyboard-response","420","1006433","0.0-13.0-2.0-1.0-0.0-1.55","null","<span style='color:red; font-size: 70px;'>错误! </span>","null","","","","","","","","","","","","","","","","","","","","","","","feedback_test"
"","","","","","psychophysics","421","1008257","0.0-13.0-2.0-1.0-0.0-0.56","823","","j","","","","","","","","","","","","","key","j","16.665999999999595","720","446","j","true","img/C_ambi40.png","常人","simultaneous",""
"","","","","","html-keyboard-response","422","1008559","0.0-13.0-2.0-1.0-0.0-1.56","null","<span style='color:GreenYellow; font-size: 70px;'>正确! </span>","null","","","","","","","","","","","","","","","","","","","","","","","feedback_test"
"","","","","","psychophysics","423","1010423","0.0-13.0-2.0-1.0-0.0-0.57","858","","f","","","","","","","","","","","","","key","f","16.666000000000846","720","446","f","true","img/S_ambi40.png","好人","simultaneous",""
"","","","","","html-keyboard-response","424","1010726","0.0-13.0-2.0-1.0-0.0-1.57","null","<span style='color:GreenYellow; font-size: 70px;'>正确! </span>","null","","","","","","","","","","","","","","","","","","","","","","","feedback_test"
"","","","","","psychophysics","425","1012503","0.0-13.0-2.0-1.0-0.0-0.58","770","","j","","","","","","","","","","","","","key","j","16.666000000000185","720","446","f","false","img/T_ambi40.png","常人","simultaneous",""
"","","","","","html-keyboard-response","426","1012808","0.0-13.0-2.0-1.0-0.0-1.58","null","<span style='color:red; font-size: 70px;'>错误! </span>","null","","","","","","","","","","","","","","","","","","","","","","","feedback_test"
"","","","","","psychophysics","427","1014897","0.0-13.0-2.0-1.0-0.0-0.59","1087","","j","","","","","","","","","","","","","key","j","16.666000000000256","720","446","j","true","img/S_ambi40.png","坏人","simultaneous",""
"","","","","","html-keyboard-response","428","1015199","0.0-13.0-2.0-1.0-0.0-1.59","null","<span style='color:GreenYellow; font-size: 70px;'>正确! </span>","null","","","","","","","","","","","","","","","","","","","","","","","feedback_test"
"","","","","","psychophysics","429","1017340","0.0-13.0-2.0-1.0-0.0-0.60","1138","","f","","","","","","","","","","","","","key","f","16.67623622047231","720","446","j","false","img/C_ambi40.png","常人","simultaneous",""
"","","","","","html-keyboard-response","430","1017641","0.0-13.0-2.0-1.0-0.0-1.60","null","<span style='color:red; font-size: 70px;'>错误! </span>","null","","","","","","","","","","","","","","","","","","","","","","","feedback_test"
"","","","","","psychophysics","431","1019691","0.0-13.0-2.0-1.0-0.0-0.61","1044","","j","","","","","","","","","","","","","key","j","16.665999999999823","720","446","j","true","img/S_ambi40.png","坏人","simultaneous",""
"","","","","","html-keyboard-response","432","1019993","0.0-13.0-2.0-1.0-0.0-1.61","null","<span style='color:GreenYellow; font-size: 70px;'>正确! </span>","null","","","","","","","","","","","","","","","","","","","","","","","feedback_test"
