"success","timeout","failed_images","failed_audio","failed_video","trial_type","trial_index","time_elapsed","internal_node_id","rt","stimulus","response","value","item_width_mm","item_height_mm","item_width_px","px2mm","view_dist_mm","item_width_deg","px2deg","scale_factor","win_width_deg","win_height_deg","view_history","response_type","key_press","avg_frame_time","center_x","center_y","correct_response","correct","Image","word","condition","screen_id"
"true","false","[]","[]","[]","preload","0","602","0.0-0.0","","","","","","","","","","","","","","","","","","","","","","","","","",""
"","","","","","html-keyboard-response","1","24285","0.0-1.0","23682","
     <p>您好，欢迎参加本次实验。</p>
     <p>为充分保障您的权利，请确保您已经知晓并同意《参与实验同意书》以及《数据公开知情同意书》。</p>
     <p>如果您未见过上述内容，请咨询实验员。</p>
     <p>如果您选择继续实验，则表示您已经清楚两份知情同意书的内容并同意。</p>
     <p> <div style = ""color: green""><按任意键至下页></div> </p>
     ","arrowright","","","","","","","","","","","","","","","","","","","","","","",""
"","","","","","html-keyboard-response","2","28793","0.0-2.0","4507","
     <p>本实验首先需要您填写一些基本个人信息。</p>
     <p> <div style = ""color: green""><按任意键至下页></div></p>
     ","audiovolumeup","","","","","","","","","","","","","","","","","","","","","","",""
"","","","","","call-function","3","28794","0.0-3.0-0.0","","","","","","","","","","","","","","","","","","","","","","","","","",""
"","","","","","survey-html-form","4","36152","0.0-3.0-1.0","7356","","{""Q0"":""5""}","","","","","","","","","","","","","","","","","","","","","","",""
"","","","","","html-button-response","5","37299","0.0-3.0-2.0","1144","<p style = 'color : white'>您的性别</p>","1","","","","","","","","","","","","","","","","","","","","","","",""
"","","","","","survey-html-form","6","42669","0.0-3.0-3.0","5370","","{""Q0"":""2003""}","","","","","","","","","","","","","","","","","","","","","","",""
"","","","","","survey-html-form","7","46397","0.0-3.0-4.0","3726","","{""Q0"":""5""}","","","","","","","","","","","","","","","","","","","","","","",""
"","","","","","virtual-chinrest","8","264829","0.0-4.0","218430","","","","85.6","53.98","398.40944226157944","4.6543159142707875","614.52","7.968188845231588","50.00000000000001","1.0742717280254432","27.859999999999996","15.779999999999998","","","","","","","","","","","",""
"true","","","","","fullscreen","9","272864","0.0-5.0","","","","","","","","","","","","","","","","","","","","","","","","","",""
"","","","","","instructions","10","366947","0.0-6.0","94081","","","","","","","","","","","","","","[{""page_index"":0,""viewing_time"":10255},{""page_index"":1,""viewing_time"":52187},{""page_index"":2,""viewing_time"":5288},{""page_index"":1,""viewing_time"":1717},{""page_index"":2,""viewing_time"":21526},{""page_index"":3,""viewing_time"":3107}]","","","","","","","","","","",""
"","","","","","psychophysics","11","369611","0.0-7.0-0.0-0.0","null","","null","","","","","","","","","","","","","key","null","16.66751898734173","720","446","f","false","img/S_ambi40.png","坏人","prac_image_first",""
"","","","","","html-keyboard-response","12","369926","0.0-7.0-0.0-1.0","null","<span class='add_' style='color:yellow; font-size: 70px;'> 太慢! </span>","null","","","","","","","","","","","","","","","","","","","","","","","feedback_test"
"","","","","","psychophysics","13","372594","0.0-7.0-0.0-0.1","null","","null","","","","","","","","","","","","","key","null","16.77153797468349","720","446","f","false","img/C_ambi40.png","常人","prac_image_first",""
"","","","","","html-keyboard-response","14","372907","0.0-7.0-0.0-1.1","null","<span class='add_' style='color:yellow; font-size: 70px;'> 太慢! </span>","null","","","","","","","","","","","","","","","","","","","","","","","feedback_test"
"","","","","","psychophysics","15","375577","0.0-7.0-0.0-0.2","null","","null","","","","","","","","","","","","","key","null","25.81911764705871","720","446","f","false","img/C_ambi40.png","好人","prac_image_first",""
"","","","","","html-keyboard-response","16","375883","0.0-7.0-0.0-1.2","null","<span class='add_' style='color:yellow; font-size: 70px;'> 太慢! </span>","null","","","","","","","","","","","","","","","","","","","","","","","feedback_test"
"","","","","","psychophysics","17","378161","0.0-7.0-0.0-0.3","1124","","f","","","","","","","","","","","","","key","f","26.707638554216828","720","446","j","false","img/C_ambi40.png","坏人","prac_image_first",""
"","","","","","html-keyboard-response","18","378474","0.0-7.0-0.0-1.3","null","<span style='color:red; font-size: 70px;'>错误! </span>","null","","","","","","","","","","","","","","","","","","","","","","","feedback_test"
"","","","","","psychophysics","19","381142","0.0-7.0-0.0-0.4","null","","null","","","","","","","","","","","","","key","null","27.256072916667108","720","446","f","false","img/T_ambi40.png","常人","prac_image_first",""
"","","","","","html-keyboard-response","20","381457","0.0-7.0-0.0-1.4","null","<span class='add_' style='color:yellow; font-size: 70px;'> 太慢! </span>","null","","","","","","","","","","","","","","","","","","","","","","","feedback_test"
"","","","","","psychophysics","21","383963","0.0-7.0-0.0-0.5","1352","","j","","","","","","","","","","","","","key","j","21.188084745762367","720","446","j","true","img/T_ambi40.png","好人","prac_image_first",""
"","","","","","html-keyboard-response","22","384275","0.0-7.0-0.0-1.5","null","<span style='color:GreenYellow; font-size: 70px;'>正确! </span>","null","","","","","","","","","","","","","","","","","","","","","","","feedback_test"
"","","","","","psychophysics","23","386299","0.0-7.0-0.0-0.6","872","","f","","","","","","","","","","","","","key","f","21.74083695652181","720","446","j","false","img/C_ambi40.png","坏人","prac_image_first",""
"","","","","","html-keyboard-response","24","386617","0.0-7.0-0.0-1.6","null","<span style='color:red; font-size: 70px;'>错误! </span>","null","","","","","","","","","","","","","","","","","","","","","","","feedback_test"
"","","","","","psychophysics","25","388929","0.0-7.0-0.0-0.7","1144","","j","","","","","","","","","","","","","key","j","21.54108490566075","720","446","j","true","img/T_ambi40.png","好人","prac_image_first",""
"","","","","","html-keyboard-response","26","389238","0.0-7.0-0.0-1.7","null","<span style='color:GreenYellow; font-size: 70px;'>正确! </span>","null","","","","","","","","","","","","","","","","","","","","","","","feedback_test"
"","","","","","psychophysics","27","391815","0.0-7.0-0.0-0.8","1422","","f","","","","","","","","","","","","","key","f","20.37062698412716","720","446","f","true","img/S_ambi40.png","好人","prac_image_first",""
"","","","","","html-keyboard-response","28","392132","0.0-7.0-0.0-1.8","null","<span style='color:GreenYellow; font-size: 70px;'>正确! </span>","null","","","","","","","","","","","","","","","","","","","","","","","feedback_test"
"","","","","","psychophysics","29","394559","0.0-7.0-0.0-0.9","1275","","f","","","","","","","","","","","","","key","f","20.139333333333102","720","446","f","true","img/T_ambi40.png","坏人","prac_image_first",""
"","","","","","html-keyboard-response","30","394870","0.0-7.0-0.0-1.9","null","<span style='color:GreenYellow; font-size: 70px;'>正确! </span>","null","","","","","","","","","","","","","","","","","","","","","","","feedback_test"
"","","","","","psychophysics","31","397126","0.0-7.0-0.0-0.10","1100","","j","","","","","","","","","","","","","key","j","25.09362921348297","720","446","j","true","img/S_ambi40.png","常人","prac_image_first",""
"","","","","","html-keyboard-response","32","397441","0.0-7.0-0.0-1.10","null","<span style='color:GreenYellow; font-size: 70px;'>正确! </span>","null","","","","","","","","","","","","","","","","","","","","","","","feedback_test"
"","","","","","psychophysics","33","400094","0.0-7.0-0.0-0.11","null","","null","","","","","","","","","","","","","key","null","22.558025862069215","720","446","j","false","img/S_ambi40.png","常人","prac_image_first",""
"","","","","","html-keyboard-response","34","400403","0.0-7.0-0.0-1.11","null","<span class='add_' style='color:yellow; font-size: 70px;'> 太慢! </span>","null","","","","","","","","","","","","","","","","","","","","","","","feedback_test"
"","","","","","psychophysics","35","403068","0.0-7.0-0.0-0.12","null","","null","","","","","","","","","","","","","key","null","16.772253164556982","720","446","j","false","img/T_ambi40.png","好人","prac_image_first",""
"","","","","","html-keyboard-response","36","403372","0.0-7.0-0.0-1.12","null","<span class='add_' style='color:yellow; font-size: 70px;'> 太慢! </span>","null","","","","","","","","","","","","","","","","","","","","","","","feedback_test"
"","","","","","psychophysics","37","405782","0.0-7.0-0.0-0.13","1256","","j","","","","","","","","","","","","","key","j","16.78334965034945","720","446","f","false","img/S_ambi40.png","好人","prac_image_first",""
"","","","","","html-keyboard-response","38","406099","0.0-7.0-0.0-1.13","null","<span style='color:red; font-size: 70px;'>错误! </span>","null","","","","","","","","","","","","","","","","","","","","","","","feedback_test"
"","","","","","psychophysics","39","408587","0.0-7.0-0.0-0.14","1329","","f","","","","","","","","","","","","","key","f","20.278266666666603","720","446","f","true","img/S_ambi40.png","坏人","prac_image_first",""
"","","","","","html-keyboard-response","40","408892","0.0-7.0-0.0-1.14","null","<span style='color:GreenYellow; font-size: 70px;'>正确! </span>","null","","","","","","","","","","","","","","","","","","","","","","","feedback_test"
"","","","","","psychophysics","41","411379","0.0-7.0-0.0-0.15","1336","","j","","","","","","","","","","","","","key","j","22.425181818181986","720","446","j","true","img/C_ambi40.png","坏人","prac_image_first",""
"","","","","","html-keyboard-response","42","411690","0.0-7.0-0.0-1.15","null","<span style='color:GreenYellow; font-size: 70px;'>正确! </span>","null","","","","","","","","","","","","","","","","","","","","","","","feedback_test"
"","","","","","psychophysics","43","414345","0.0-7.0-0.0-0.16","1502","","j","","","","","","","","","","","","","key","j","20.901571428571415","720","446","f","false","img/T_ambi40.png","坏人","prac_image_first",""
"","","","","","html-keyboard-response","44","414660","0.0-7.0-0.0-1.16","null","<span class='add_' style='color:yellow; font-size: 70px;'> 太慢! </span>","null","","","","","","","","","","","","","","","","","","","","","","","feedback_test"
"","","","","","psychophysics","45","417315","0.0-7.0-0.0-0.17","null","","null","","","","","","","","","","","","","key","null","18.689828571428578","720","446","f","false","img/C_ambi40.png","好人","prac_image_first",""
"","","","","","html-keyboard-response","46","417630","0.0-7.0-0.0-1.17","null","<span class='add_' style='color:yellow; font-size: 70px;'> 太慢! </span>","null","","","","","","","","","","","","","","","","","","","","","","","feedback_test"
"","","","","","psychophysics","47","419506","0.0-7.0-0.0-0.18","719","","j","","","","","","","","","","","","","key","j","20.370111111111086","720","446","f","false","img/T_ambi40.png","常人","prac_image_first",""
"","","","","","html-keyboard-response","48","419818","0.0-7.0-0.0-1.18","null","<span style='color:red; font-size: 70px;'>错误! </span>","null","","","","","","","","","","","","","","","","","","","","","","","feedback_test"
"","","","","","psychophysics","49","422123","0.0-7.0-0.0-0.19","1152","","j","","","","","","","","","","","","","key","j","20.23887500000014","720","446","j","true","img/T_ambi40.png","好人","prac_image_first",""
"","","","","","html-keyboard-response","50","422433","0.0-7.0-0.0-1.19","null","<span style='color:GreenYellow; font-size: 70px;'>正确! </span>","null","","","","","","","","","","","","","","","","","","","","","","","feedback_test"
"","","","","","psychophysics","51","424411","0.0-7.0-0.0-0.20","824","","j","","","","","","","","","","","","","key","j","19.899265306122714","720","446","j","true","img/S_ambi40.png","常人","prac_image_first",""
"","","","","","html-keyboard-response","52","424730","0.0-7.0-0.0-1.20","null","<span style='color:GreenYellow; font-size: 70px;'>正确! </span>","null","","","","","","","","","","","","","","","","","","","","","","","feedback_test"
"","","","","","psychophysics","53","426944","0.0-7.0-0.0-0.21","1061","","j","","","","","","","","","","","","","key","j","24.998895348836857","720","446","f","false","img/C_ambi40.png","常人","prac_image_first",""
"","","","","","html-keyboard-response","54","427256","0.0-7.0-0.0-1.21","null","<span style='color:red; font-size: 70px;'>错误! </span>","null","","","","","","","","","","","","","","","","","","","","","","","feedback_test"
"","","","","","psychophysics","55","429731","0.0-7.0-0.0-0.22","1306","","j","","","","","","","","","","","","","key","j","45.37057407407405","720","446","j","true","img/S_ambi40.png","常人","prac_image_first",""
"","","","","","html-keyboard-response","56","430037","0.0-7.0-0.0-1.22","null","<span style='color:GreenYellow; font-size: 70px;'>正确! </span>","null","","","","","","","","","","","","","","","","","","","","","","","feedback_test"
"","","","","","psychophysics","57","432547","0.0-7.0-0.0-0.23","1351","","f","","","","","","","","","","","","","key","f","27.90293258427004","720","446","j","false","img/C_ambi40.png","坏人","prac_image_first",""
"","","","","","html-keyboard-response","58","432857","0.0-7.0-0.0-1.23","null","<span style='color:red; font-size: 70px;'>错误! </span>","null","","","","","","","","","","","","","","","","","","","","","","","feedback_test"
"","","","","","html-keyboard-response","59","449481","0.0-7.0-1.0-0.0","16622","<style>.context{color:white; font-size: 35px; line-height:40px}</style>                              <div><p class='context'>您正确回答了42% 的试次。</p><p class='context'>您的平均反应时为1224毫秒。</p>","j","","","","","","","","","","","","","","","","","","","","","","",""
"","","","","","instructions","60","475438","0.0-7.0-1.0-1.0","25953","","","","","","","","","","","","","","[{""page_index"":0,""viewing_time"":2183},{""page_index"":1,""viewing_time"":12203},{""page_index"":2,""viewing_time"":11567}]","","","","","","","","","","",""
"","","","","","psychophysics","61","477811","0.0-7.1-0.1-0.24","1218","","j","","","","","","","","","","","","","key","j","16.666581560283774","720","446","f","false","img/S_ambi40.png","好人","prac_image_first",""
"","","","","","html-keyboard-response","62","478119","0.0-7.1-0.1-1.24","null","<span style='color:red; font-size: 70px;'>错误! </span>","null","","","","","","","","","","","","","","","","","","","","","","","feedback_test"
"","","","","","psychophysics","63","480200","0.0-7.1-0.1-0.25","924","","j","","","","","","","","","","","","","key","j","16.93988524590138","720","446","f","false","img/S_ambi40.png","坏人","prac_image_first",""
"","","","","","html-keyboard-response","64","480510","0.0-7.1-0.1-1.25","null","<span style='color:red; font-size: 70px;'>错误! </span>","null","","","","","","","","","","","","","","","","","","","","","","","feedback_test"
"","","","","","psychophysics","65","483194","0.0-7.1-0.1-0.26","null","","null","","","","","","","","","","","","","key","null","22.176076271186457","720","446","j","false","img/C_ambi40.png","坏人","prac_image_first",""
"","","","","","html-keyboard-response","66","483504","0.0-7.1-0.1-1.26","null","<span class='add_' style='color:yellow; font-size: 70px;'> 太慢! </span>","null","","","","","","","","","","","","","","","","","","","","","","","feedback_test"
"","","","","","psychophysics","67","486171","0.0-7.1-0.1-0.27","null","","null","","","","","","","","","","","","","key","null","19.343883211678573","720","446","f","false","img/C_ambi40.png","常人","prac_image_first",""
"","","","","","html-keyboard-response","68","486480","0.0-7.1-0.1-1.27","null","<span class='add_' style='color:yellow; font-size: 70px;'> 太慢! </span>","null","","","","","","","","","","","","","","","","","","","","","","","feedback_test"
"","","","","","psychophysics","69","488390","0.0-7.1-0.1-0.28","755","","j","","","","","","","","","","","","","key","j","16.81530357142869","720","446","j","true","img/C_ambi40.png","坏人","prac_image_first",""
"","","","","","html-keyboard-response","70","488704","0.0-7.1-0.1-1.28","null","<span style='color:GreenYellow; font-size: 70px;'>正确! </span>","null","","","","","","","","","","","","","","","","","","","","","","","feedback_test"
"","","","","","psychophysics","71","491096","0.0-7.1-0.1-0.29","1229","","j","","","","","","","","","","","","","key","j","19.40102459016384","720","446","j","true","img/T_ambi40.png","好人","prac_image_first",""
"","","","","","html-keyboard-response","72","491409","0.0-7.1-0.1-1.29","null","<span style='color:GreenYellow; font-size: 70px;'>正确! </span>","null","","","","","","","","","","","","","","","","","","","","","","","feedback_test"
"","","","","","psychophysics","73","493730","0.0-7.1-0.1-0.30","1167","","j","","","","","","","","","","","","","key","j","37.158213114754304","720","446","j","true","img/S_ambi40.png","常人","prac_image_first",""
"","","","","","html-keyboard-response","74","494049","0.0-7.1-0.1-1.30","null","<span style='color:GreenYellow; font-size: 70px;'>正确! </span>","null","","","","","","","","","","","","","","","","","","","","","","","feedback_test"
"","","","","","psychophysics","75","496659","0.0-7.1-0.1-0.31","1459","","j","","","","","","","","","","","","","key","j","42.35222950819727","720","446","f","false","img/T_ambi40.png","坏人","prac_image_first",""
"","","","","","html-keyboard-response","76","496965","0.0-7.1-0.1-1.31","null","<span style='color:red; font-size: 70px;'>错误! </span>","null","","","","","","","","","","","","","","","","","","","","","","","feedback_test"
"","","","","","psychophysics","77","499428","0.0-7.1-0.1-0.32","1304","","j","","","","","","","","","","","","","key","j","29.117530120481284","720","446","f","false","img/C_ambi40.png","好人","prac_image_first",""
"","","","","","html-keyboard-response","78","499744","0.0-7.1-0.1-1.32","null","<span style='color:red; font-size: 70px;'>错误! </span>","null","","","","","","","","","","","","","","","","","","","","","","","feedback_test"
"","","","","","psychophysics","79","502409","0.0-7.1-0.1-0.33","null","","null","","","","","","","","","","","","","key","null","22.129109243697492","720","446","f","false","img/T_ambi40.png","常人","prac_image_first",""
"","","","","","html-keyboard-response","80","502727","0.0-7.1-0.1-1.33","null","<span class='add_' style='color:yellow; font-size: 70px;'> 太慢! </span>","null","","","","","","","","","","","","","","","","","","","","","","","feedback_test"
"","","","","","psychophysics","81","504794","0.0-7.1-0.1-0.34","911","","j","","","","","","","","","","","","","key","j","16.667560975610115","720","446","j","true","img/S_ambi40.png","常人","prac_image_first",""
"","","","","","html-keyboard-response","82","505113","0.0-7.1-0.1-1.34","null","<span style='color:GreenYellow; font-size: 70px;'>正确! </span>","null","","","","","","","","","","","","","","","","","","","","","","","feedback_test"
"","","","","","psychophysics","83","507557","0.0-7.1-0.1-0.35","1289","","f","","","","","","","","","","","","","key","f","16.782930555555748","720","446","j","false","img/T_ambi40.png","好人","prac_image_first",""
"","","","","","html-keyboard-response","84","507862","0.0-7.1-0.1-1.35","null","<span style='color:red; font-size: 70px;'>错误! </span>","null","","","","","","","","","","","","","","","","","","","","","","","feedback_test"
"","","","","","psychophysics","85","509769","0.0-7.1-0.1-0.36","746","","j","","","","","","","","","","","","","key","j","16.668017699115342","720","446","j","true","img/T_ambi40.png","好人","prac_image_first",""
"","","","","","html-keyboard-response","86","510081","0.0-7.1-0.1-1.36","null","<span style='color:GreenYellow; font-size: 70px;'>正确! </span>","null","","","","","","","","","","","","","","","","","","","","","","","feedback_test"
"","","","","","psychophysics","87","512554","0.0-7.1-0.1-0.37","1314","","f","","","","","","","","","","","","","key","f","17.37617021276581","720","446","f","true","img/S_ambi40.png","坏人","prac_image_first",""
"","","","","","html-keyboard-response","88","512866","0.0-7.1-0.1-1.37","null","<span style='color:GreenYellow; font-size: 70px;'>正确! </span>","null","","","","","","","","","","","","","","","","","","","","","","","feedback_test"
"","","","","","psychophysics","89","515147","0.0-7.1-0.1-0.38","1125","","f","","","","","","","","","","","","","key","f","16.667169117646957","720","446","f","true","img/T_ambi40.png","坏人","prac_image_first",""
"","","","","","html-keyboard-response","90","515450","0.0-7.1-0.1-1.38","null","<span style='color:GreenYellow; font-size: 70px;'>正确! </span>","null","","","","","","","","","","","","","","","","","","","","","","","feedback_test"
"","","","","","psychophysics","91","517335","0.0-7.1-0.1-0.39","726","","j","","","","","","","","","","","","","key","j","16.66511607142872","720","446","j","true","img/S_ambi40.png","常人","prac_image_first",""
"","","","","","html-keyboard-response","92","517648","0.0-7.1-0.1-1.39","null","<span style='color:GreenYellow; font-size: 70px;'>正确! </span>","null","","","","","","","","","","","","","","","","","","","","","","","feedback_test"
"","","","","","psychophysics","93","519975","0.0-7.1-0.1-0.40","1166","","f","","","","","","","","","","","","","key","f","16.666528985507036","720","446","f","true","img/C_ambi40.png","常人","prac_image_first",""
"","","","","","html-keyboard-response","94","520294","0.0-7.1-0.1-1.40","null","<span style='color:GreenYellow; font-size: 70px;'>正确! </span>","null","","","","","","","","","","","","","","","","","","","","","","","feedback_test"
"","","","","","psychophysics","95","522527","0.0-7.1-0.1-0.41","1069","","j","","","","","","","","","","","","","key","j","16.790606060605956","720","446","f","false","img/C_ambi40.png","好人","prac_image_first",""
"","","","","","html-keyboard-response","96","522838","0.0-7.1-0.1-1.41","null","<span style='color:red; font-size: 70px;'>错误! </span>","null","","","","","","","","","","","","","","","","","","","","","","","feedback_test"
"","","","","","psychophysics","97","525119","0.0-7.1-0.1-0.42","1130","","j","","","","","","","","","","","","","key","j","16.6666764705887","720","446","j","true","img/C_ambi40.png","坏人","prac_image_first",""
"","","","","","html-keyboard-response","98","525443","0.0-7.1-0.1-1.42","null","<span style='color:GreenYellow; font-size: 70px;'>正确! </span>","null","","","","","","","","","","","","","","","","","","","","","","","feedback_test"
"","","","","","psychophysics","99","527389","0.0-7.1-0.1-0.43","794","","f","","","","","","","","","","","","","key","f","16.6675913043472","720","446","f","true","img/S_ambi40.png","好人","prac_image_first",""
"","","","","","html-keyboard-response","100","527695","0.0-7.1-0.1-1.43","null","<span style='color:GreenYellow; font-size: 70px;'>正确! </span>","null","","","","","","","","","","","","","","","","","","","","","","","feedback_test"
"","","","","","psychophysics","101","529841","0.0-7.1-0.1-0.44","989","","j","","","","","","","","","","","","","key","j","16.666984251968923","720","446","j","true","img/C_ambi40.png","坏人","prac_image_first",""
"","","","","","html-keyboard-response","102","530156","0.0-7.1-0.1-1.44","null","<span style='color:GreenYellow; font-size: 70px;'>正确! </span>","null","","","","","","","","","","","","","","","","","","","","","","","feedback_test"
"","","","","","psychophysics","103","532546","0.0-7.1-0.1-0.45","1238","","f","","","","","","","","","","","","","key","f","16.704021276595693","720","446","j","false","img/T_ambi40.png","好人","prac_image_first",""
"","","","","","html-keyboard-response","104","532850","0.0-7.1-0.1-1.45","null","<span style='color:red; font-size: 70px;'>错误! </span>","null","","","","","","","","","","","","","","","","","","","","","","","feedback_test"
"","","","","","psychophysics","105","534705","0.0-7.1-0.1-0.46","699","","j","","","","","","","","","","","","","key","j","16.66914545454466","720","446","j","true","img/S_ambi40.png","常人","prac_image_first",""
"","","","","","html-keyboard-response","106","535017","0.0-7.1-0.1-1.46","null","<span style='color:GreenYellow; font-size: 70px;'>正确! </span>","null","","","","","","","","","","","","","","","","","","","","","","","feedback_test"
"","","","","","psychophysics","107","537160","0.0-7.1-0.1-0.47","983","","j","","","","","","","","","","","","","key","j","16.932515873015667","720","446","f","false","img/T_ambi40.png","常人","prac_image_first",""
"","","","","","html-keyboard-response","108","537474","0.0-7.1-0.1-1.47","null","<span style='color:red; font-size: 70px;'>错误! </span>","null","","","","","","","","","","","","","","","","","","","","","","","feedback_test"
"","","","","","html-keyboard-response","109","547145","0.0-7.1-1.1-0.1","9670","<style>.context{color:white; font-size: 35px; line-height:40px}</style>                              <div><p class='context'>您正确回答了54% 的试次。</p><p class='context'>您的平均反应时为981毫秒。</p>","j","","","","","","","","","","","","","","","","","","","","","","",""
"","","","","","instructions","110","597773","0.0-7.1-1.1-1.1","50626","","","","","","","","","","","","","","[{""page_index"":0,""viewing_time"":2160},{""page_index"":1,""viewing_time"":44828},{""page_index"":2,""viewing_time"":3637}]","","","","","","","","","","",""
"","","","","","psychophysics","111","600431","0.0-7.2-0.2-0.48","null","","null","","","","","","","","","","","","","key","null","16.706222929936168","720","446","f","false","img/C_ambi40.png","常人","prac_image_first",""
"","","","","","html-keyboard-response","112","600747","0.0-7.2-0.2-1.48","null","<span class='add_' style='color:yellow; font-size: 70px;'> 太慢! </span>","null","","","","","","","","","","","","","","","","","","","","","","","feedback_test"
"","","","","","psychophysics","113","603291","0.0-7.2-0.2-0.49","1384","","f","","","","","","","","","","","","","key","f","16.888760000000087","720","446","f","true","img/T_ambi40.png","坏人","prac_image_first",""
"","","","","","html-keyboard-response","114","603600","0.0-7.2-0.2-1.49","null","<span style='color:GreenYellow; font-size: 70px;'>正确! </span>","null","","","","","","","","","","","","","","","","","","","","","","","feedback_test"
"","","","","","psychophysics","115","605886","0.0-7.2-0.2-0.50","1130","","j","","","","","","","","","","","","","key","j","16.916768656716048","720","446","j","true","img/T_ambi40.png","好人","prac_image_first",""
"","","","","","html-keyboard-response","116","606208","0.0-7.2-0.2-1.50","null","<span style='color:GreenYellow; font-size: 70px;'>正确! </span>","null","","","","","","","","","","","","","","","","","","","","","","","feedback_test"
"","","","","","psychophysics","117","608257","0.0-7.2-0.2-0.51","898","","f","","","","","","","","","","","","","key","f","16.94761344537769","720","446","f","true","img/S_ambi40.png","好人","prac_image_first",""
"","","","","","html-keyboard-response","118","608562","0.0-7.2-0.2-1.51","null","<span style='color:GreenYellow; font-size: 70px;'>正确! </span>","null","","","","","","","","","","","","","","","","","","","","","","","feedback_test"
"","","","","","psychophysics","119","610501","0.0-7.2-0.2-0.52","787","","j","","","","","","","","","","","","","key","j","18.083556603773207","720","446","j","true","img/S_ambi40.png","常人","prac_image_first",""
"","","","","","html-keyboard-response","120","610806","0.0-7.2-0.2-1.52","null","<span style='color:GreenYellow; font-size: 70px;'>正确! </span>","null","","","","","","","","","","","","","","","","","","","","","","","feedback_test"
"","","","","","psychophysics","121","612632","0.0-7.2-0.2-0.53","675","","j","","","","","","","","","","","","","key","j","16.822850467289022","720","446","j","true","img/S_ambi40.png","常人","prac_image_first",""
"","","","","","html-keyboard-response","122","612951","0.0-7.2-0.2-1.53","null","<span style='color:GreenYellow; font-size: 70px;'>正确! </span>","null","","","","","","","","","","","","","","","","","","","","","","","feedback_test"
"","","","","","psychophysics","123","614854","0.0-7.2-0.2-0.54","748","","f","","","","","","","","","","","","","key","f","16.817142857143022","720","446","f","true","img/C_ambi40.png","好人","prac_image_first",""
"","","","","","html-keyboard-response","124","615171","0.0-7.2-0.2-1.54","null","<span style='color:GreenYellow; font-size: 70px;'>正确! </span>","null","","","","","","","","","","","","","","","","","","","","","","","feedback_test"
"","","","","","psychophysics","125","617345","0.0-7.2-0.2-0.55","1006","","j","","","","","","","","","","","","","key","j","16.697312499999498","720","446","j","true","img/C_ambi40.png","坏人","prac_image_first",""
"","","","","","html-keyboard-response","126","617658","0.0-7.2-0.2-1.55","null","<span style='color:GreenYellow; font-size: 70px;'>正确! </span>","null","","","","","","","","","","","","","","","","","","","","","","","feedback_test"
"","","","","","psychophysics","127","619675","0.0-7.2-0.2-0.56","864","","f","","","","","","","","","","","","","key","f","16.80748739495811","720","446","f","true","img/S_ambi40.png","坏人","prac_image_first",""
"","","","","","html-keyboard-response","128","619989","0.0-7.2-0.2-1.56","null","<span style='color:GreenYellow; font-size: 70px;'>正确! </span>","null","","","","","","","","","","","","","","","","","","","","","","","feedback_test"
"","","","","","psychophysics","129","622094","0.0-7.2-0.2-0.57","954","","j","","","","","","","","","","","","","key","j","16.81951219512233","720","446","f","false","img/T_ambi40.png","常人","prac_image_first",""
"","","","","","html-keyboard-response","130","622416","0.0-7.2-0.2-1.57","null","<span style='color:red; font-size: 70px;'>错误! </span>","null","","","","","","","","","","","","","","","","","","","","","","","feedback_test"
"","","","","","psychophysics","131","624346","0.0-7.2-0.2-0.58","774","","j","","","","","","","","","","","","","key","j","16.813166666666675","720","446","j","true","img/C_ambi40.png","坏人","prac_image_first",""
"","","","","","html-keyboard-response","132","624654","0.0-7.2-0.2-1.58","null","<span style='color:GreenYellow; font-size: 70px;'>正确! </span>","null","","","","","","","","","","","","","","","","","","","","","","","feedback_test"
"","","","","","psychophysics","133","627042","0.0-7.2-0.2-0.59","1235","","j","","","","","","","","","","","","","key","j","18.63528346456679","720","446","j","true","img/T_ambi40.png","好人","prac_image_first",""
"","","","","","html-keyboard-response","134","627356","0.0-7.2-0.2-1.59","null","<span style='color:GreenYellow; font-size: 70px;'>正确! </span>","null","","","","","","","","","","","","","","","","","","","","","","","feedback_test"
"","","","","","psychophysics","135","629410","0.0-7.2-0.2-0.60","887","","j","","","","","","","","","","","","","key","j","16.666680327868548","720","446","f","false","img/C_ambi40.png","好人","prac_image_first",""
"","","","","","html-keyboard-response","136","629715","0.0-7.2-0.2-1.60","null","<span style='color:red; font-size: 70px;'>错误! </span>","null","","","","","","","","","","","","","","","","","","","","","","","feedback_test"
"","","","","","psychophysics","137","632051","0.0-7.2-0.2-0.61","1177","","j","","","","","","","","","","","","","key","j","16.78819565217355","720","446","j","true","img/T_ambi40.png","好人","prac_image_first",""
"","","","","","html-keyboard-response","138","632357","0.0-7.2-0.2-1.61","null","<span style='color:GreenYellow; font-size: 70px;'>正确! </span>","null","","","","","","","","","","","","","","","","","","","","","","","feedback_test"
"","","","","","psychophysics","139","634903","0.0-7.2-0.2-0.62","1395","","f","","","","","","","","","","","","","key","f","16.665999999999944","720","446","f","true","img/S_ambi40.png","好人","prac_image_first",""
"","","","","","html-keyboard-response","140","635214","0.0-7.2-0.2-1.62","null","<span style='color:GreenYellow; font-size: 70px;'>正确! </span>","null","","","","","","","","","","","","","","","","","","","","","","","feedback_test"
"","","","","","psychophysics","141","637192","0.0-7.2-0.2-0.63","819","","f","","","","","","","","","","","","","key","f","16.667059322033804","720","446","f","true","img/S_ambi40.png","坏人","prac_image_first",""
"","","","","","html-keyboard-response","142","637507","0.0-7.2-0.2-1.63","null","<span style='color:GreenYellow; font-size: 70px;'>正确! </span>","null","","","","","","","","","","","","","","","","","","","","","","","feedback_test"
"","","","","","psychophysics","143","639314","0.0-7.2-0.2-0.64","649","","j","","","","","","","","","","","","","key","j","16.66724299065438","720","446","j","true","img/T_ambi40.png","好人","prac_image_first",""
"","","","","","html-keyboard-response","144","639627","0.0-7.2-0.2-1.64","null","<span style='color:GreenYellow; font-size: 70px;'>正确! </span>","null","","","","","","","","","","","","","","","","","","","","","","","feedback_test"
"","","","","","psychophysics","145","641662","0.0-7.2-0.2-0.65","882","","f","","","","","","","","","","","","","key","f","16.665710743802432","720","446","f","true","img/T_ambi40.png","常人","prac_image_first",""
"","","","","","html-keyboard-response","146","641971","0.0-7.2-0.2-1.65","null","<span style='color:GreenYellow; font-size: 70px;'>正确! </span>","null","","","","","","","","","","","","","","","","","","","","","","","feedback_test"
"","","","","","psychophysics","147","644055","0.0-7.2-0.2-0.66","932","","j","","","","","","","","","","","","","key","j","16.8312314049589","720","446","j","true","img/C_ambi40.png","坏人","prac_image_first",""
"","","","","","html-keyboard-response","148","644373","0.0-7.2-0.2-1.66","null","<span style='color:GreenYellow; font-size: 70px;'>正确! </span>","null","","","","","","","","","","","","","","","","","","","","","","","feedback_test"
"","","","","","psychophysics","149","646388","0.0-7.2-0.2-0.67","864","","f","","","","","","","","","","","","","key","f","16.809550847457643","720","446","j","false","img/S_ambi40.png","常人","prac_image_first",""
"","","","","","html-keyboard-response","150","646695","0.0-7.2-0.2-1.67","null","<span style='color:red; font-size: 70px;'>错误! </span>","null","","","","","","","","","","","","","","","","","","","","","","","feedback_test"
"","","","","","psychophysics","151","648996","0.0-7.2-0.2-0.68","1139","","j","","","","","","","","","","","","","key","j","16.666751824818164","720","446","f","false","img/C_ambi40.png","常人","prac_image_first",""
"","","","","","html-keyboard-response","152","649305","0.0-7.2-0.2-1.68","null","<span style='color:red; font-size: 70px;'>错误! </span>","null","","","","","","","","","","","","","","","","","","","","","","","feedback_test"
"","","","","","psychophysics","153","651726","0.0-7.2-0.2-0.69","1270","","f","","","","","","","","","","","","","key","f","16.66809722222226","720","446","f","true","img/T_ambi40.png","坏人","prac_image_first",""
"","","","","","html-keyboard-response","154","652045","0.0-7.2-0.2-1.69","null","<span style='color:GreenYellow; font-size: 70px;'>正确! </span>","null","","","","","","","","","","","","","","","","","","","","","","","feedback_test"
"","","","","","psychophysics","155","654000","0.0-7.2-0.2-0.70","802","","j","","","","","","","","","","","","","key","j","16.812824561403605","720","446","j","true","img/C_ambi40.png","坏人","prac_image_first",""
"","","","","","html-keyboard-response","156","654320","0.0-7.2-0.2-1.70","null","<span style='color:GreenYellow; font-size: 70px;'>正确! </span>","null","","","","","","","","","","","","","","","","","","","","","","","feedback_test"
"","","","","","psychophysics","157","656511","0.0-7.2-0.2-0.71","1038","","f","","","","","","","","","","","","","key","f","16.795699999999936","720","446","j","false","img/S_ambi40.png","常人","prac_image_first",""
"","","","","","html-keyboard-response","158","656832","0.0-7.2-0.2-1.71","null","<span style='color:red; font-size: 70px;'>错误! </span>","null","","","","","","","","","","","","","","","","","","","","","","","feedback_test"
"","","","","","html-keyboard-response","159","661645","0.0-8.0","4812","<style>.context{color:white; font-size: 35px; line-height:40px}</style>                              <div><p class='context'>您正确回答了75% 的试次。</p><p class='context'>您的平均反应时为968毫秒。</p><p class='context'>恭喜您完成这一阶段的练习。按任意键进入<span style='color: yellow;'>先文字后图形条件</span>的练习。</p></div>","j","","","","","","","","","","","","","","","","","","","","","","",""
"","","","","","psychophysics","160","664307","0.0-9.0-0.0-0.0","null","","null","","","","","","","","","","","","","key","null","16.666411392404726","720","446","f","false","img/C_ambi40.png","好人","prac_word_first",""
"","","","","","html-keyboard-response","161","664621","0.0-9.0-0.0-1.0","null","<span class='add_' style='color:yellow; font-size: 70px;'> 太慢! </span>","null","","","","","","","","","","","","","","","","","","","","","","","feedback_test"
"","","","","","psychophysics","162","666669","0.0-9.0-0.0-0.1","896","","j","","","","","","","","","","","","","key","j","16.66657024793315","720","446","f","false","img/T_ambi40.png","坏人","prac_word_first",""
"","","","","","html-keyboard-response","163","666971","0.0-9.0-0.0-1.1","null","<span style='color:red; font-size: 70px;'>错误! </span>","null","","","","","","","","","","","","","","","","","","","","","","","feedback_test"
"","","","","","psychophysics","164","669640","0.0-9.0-0.0-0.2","null","","null","","","","","","","","","","","","","key","null","16.665645569620384","720","446","f","false","img/T_ambi40.png","常人","prac_word_first",""
"","","","","","html-keyboard-response","165","669943","0.0-9.0-0.0-1.2","null","<span class='add_' style='color:yellow; font-size: 70px;'> 太慢! </span>","null","","","","","","","","","","","","","","","","","","","","","","","feedback_test"
"","","","","","psychophysics","166","671688","0.0-9.0-0.0-0.3","587","","j","","","","","","","","","","","","","key","j","16.667271844659552","720","446","j","true","img/S_ambi40.png","常人","prac_word_first",""
"","","","","","html-keyboard-response","167","671998","0.0-9.0-0.0-1.3","null","<span style='color:GreenYellow; font-size: 70px;'>正确! </span>","null","","","","","","","","","","","","","","","","","","","","","","","feedback_test"
"","","","","","psychophysics","168","674148","0.0-9.0-0.0-0.4","993","","f","","","","","","","","","","","","","key","f","16.931079365080222","720","446","f","true","img/S_ambi40.png","好人","prac_word_first",""
"","","","","","html-keyboard-response","169","674453","0.0-9.0-0.0-1.4","null","<span style='color:GreenYellow; font-size: 70px;'>正确! </span>","null","","","","","","","","","","","","","","","","","","","","","","","feedback_test"
"","","","","","psychophysics","170","676568","0.0-9.0-0.0-0.5","961","","j","","","","","","","","","","","","","key","j","16.801664000000805","720","446","j","true","img/T_ambi40.png","好人","prac_word_first",""
"","","","","","html-keyboard-response","171","676876","0.0-9.0-0.0-1.5","null","<span style='color:GreenYellow; font-size: 70px;'>正确! </span>","null","","","","","","","","","","","","","","","","","","","","","","","feedback_test"
"","","","","","psychophysics","172","678639","0.0-9.0-0.0-0.6","612","","j","","","","","","","","","","","","","key","j","16.66740952380933","720","446","j","true","img/T_ambi40.png","好人","prac_word_first",""
"","","","","","html-keyboard-response","173","678959","0.0-9.0-0.0-1.6","null","<span style='color:GreenYellow; font-size: 70px;'>正确! </span>","null","","","","","","","","","","","","","","","","","","","","","","","feedback_test"
"","","","","","psychophysics","174","681542","0.0-9.0-0.0-0.7","1425","","j","","","","","","","","","","","","","key","j","16.66787012986984","720","446","j","true","img/C_ambi40.png","坏人","prac_word_first",""
"","","","","","html-keyboard-response","175","681851","0.0-9.0-0.0-1.7","null","<span style='color:GreenYellow; font-size: 70px;'>正确! </span>","null","","","","","","","","","","","","","","","","","","","","","","","feedback_test"
"","","","","","psychophysics","176","684205","0.0-9.0-0.0-0.8","1201","","f","","","","","","","","","","","","","key","f","16.787280575539782","720","446","f","true","img/C_ambi40.png","常人","prac_word_first",""
"","","","","","html-keyboard-response","177","684516","0.0-9.0-0.0-1.8","null","<span style='color:GreenYellow; font-size: 70px;'>正确! </span>","null","","","","","","","","","","","","","","","","","","","","","","","feedback_test"
"","","","","","psychophysics","178","686618","0.0-9.0-0.0-0.9","945","","f","","","","","","","","","","","","","key","f","16.801677419354334","720","446","f","true","img/S_ambi40.png","坏人","prac_word_first",""
"","","","","","html-keyboard-response","179","686924","0.0-9.0-0.0-1.9","null","<span style='color:GreenYellow; font-size: 70px;'>正确! </span>","null","","","","","","","","","","","","","","","","","","","","","","","feedback_test"
"","","","","","psychophysics","180","688724","0.0-9.0-0.0-0.10","641","","j","","","","","","","","","","","","","key","j","16.668056074765982","720","446","j","true","img/S_ambi40.png","常人","prac_word_first",""
"","","","","","html-keyboard-response","181","689031","0.0-9.0-0.0-1.10","null","<span style='color:GreenYellow; font-size: 70px;'>正确! </span>","null","","","","","","","","","","","","","","","","","","","","","","","feedback_test"
"","","","","","psychophysics","182","691613","0.0-9.0-0.0-0.11","1424","","j","","","","","","","","","","","","","key","j","16.666889610389617","720","446","j","true","img/C_ambi40.png","坏人","prac_word_first",""
"","","","","","html-keyboard-response","183","691929","0.0-9.0-0.0-1.11","null","<span style='color:GreenYellow; font-size: 70px;'>正确! </span>","null","","","","","","","","","","","","","","","","","","","","","","","feedback_test"
"","","","","","psychophysics","184","694283","0.0-9.0-0.0-0.12","1199","","f","","","","","","","","","","","","","key","f","18.51874603174575","720","446","j","false","img/T_ambi40.png","好人","prac_word_first",""
"","","","","","html-keyboard-response","185","694588","0.0-9.0-0.0-1.12","null","<span style='color:red; font-size: 70px;'>错误! </span>","null","","","","","","","","","","","","","","","","","","","","","","","feedback_test"
"","","","","","psychophysics","186","696835","0.0-9.0-0.0-0.13","1095","","f","","","","","","","","","","","","","key","f","16.667684210526506","720","446","f","true","img/S_ambi40.png","坏人","prac_word_first",""
"","","","","","html-keyboard-response","187","697152","0.0-9.0-0.0-1.13","null","<span style='color:GreenYellow; font-size: 70px;'>正确! </span>","null","","","","","","","","","","","","","","","","","","","","","","","feedback_test"
"","","","","","psychophysics","188","699202","0.0-9.0-0.0-0.14","896","","j","","","","","","","","","","","","","key","j","16.66672950819589","720","446","j","true","img/S_ambi40.png","常人","prac_word_first",""
"","","","","","html-keyboard-response","189","699515","0.0-9.0-0.0-1.14","null","<span style='color:GreenYellow; font-size: 70px;'>正确! </span>","null","","","","","","","","","","","","","","","","","","","","","","","feedback_test"
"","","","","","psychophysics","190","701514","0.0-9.0-0.0-0.15","825","","j","","","","","","","","","","","","","key","j","16.667330508474535","720","446","j","true","img/C_ambi40.png","坏人","prac_word_first",""
"","","","","","html-keyboard-response","191","701826","0.0-9.0-0.0-1.15","null","<span style='color:GreenYellow; font-size: 70px;'>正确! </span>","null","","","","","","","","","","","","","","","","","","","","","","","feedback_test"
"","","","","","psychophysics","192","704028","0.0-9.0-0.0-0.16","1043","","j","","","","","","","","","","","","","key","j","16.795430769230453","720","446","j","true","img/T_ambi40.png","好人","prac_word_first",""
"","","","","","html-keyboard-response","193","704332","0.0-9.0-0.0-1.16","null","<span style='color:GreenYellow; font-size: 70px;'>正确! </span>","null","","","","","","","","","","","","","","","","","","","","","","","feedback_test"
"","","","","","psychophysics","194","706179","0.0-9.0-0.0-0.17","690","","j","","","","","","","","","","","","","key","j","16.822385321101045","720","446","j","true","img/S_ambi40.png","常人","prac_word_first",""
"","","","","","html-keyboard-response","195","706490","0.0-9.0-0.0-1.17","null","<span style='color:GreenYellow; font-size: 70px;'>正确! </span>","null","","","","","","","","","","","","","","","","","","","","","","","feedback_test"
"","","","","","psychophysics","196","708510","0.0-9.0-0.0-0.18","859","","f","","","","","","","","","","","","","key","f","16.807436974789603","720","446","f","true","img/T_ambi40.png","常人","prac_word_first",""
"","","","","","html-keyboard-response","197","708829","0.0-9.0-0.0-1.18","null","<span style='color:GreenYellow; font-size: 70px;'>正确! </span>","null","","","","","","","","","","","","","","","","","","","","","","","feedback_test"
"","","","","","psychophysics","198","711099","0.0-9.0-0.0-0.19","1111","","f","","","","","","","","","","","","","key","f","16.665422222221753","720","446","f","true","img/C_ambi40.png","好人","prac_word_first",""
"","","","","","html-keyboard-response","199","711416","0.0-9.0-0.0-1.19","null","<span style='color:GreenYellow; font-size: 70px;'>正确! </span>","null","","","","","","","","","","","","","","","","","","","","","","","feedback_test"
"","","","","","psychophysics","200","713261","0.0-9.0-0.0-0.20","689","","j","","","","","","","","","","","","","key","j","17.29661320754709","720","446","f","false","img/T_ambi40.png","坏人","prac_word_first",""
"","","","","","html-keyboard-response","201","713569","0.0-9.0-0.0-1.20","null","<span style='color:red; font-size: 70px;'>错误! </span>","null","","","","","","","","","","","","","","","","","","","","","","","feedback_test"
"","","","","","psychophysics","202","716235","0.0-9.0-0.0-0.21","1512","","f","","","","","","","","","","","","","key","f","16.772594936708536","720","446","j","false","img/C_ambi40.png","坏人","prac_word_first",""
"","","","","","html-keyboard-response","203","716539","0.0-9.0-0.0-1.21","null","<span class='add_' style='color:yellow; font-size: 70px;'> 太慢! </span>","null","","","","","","","","","","","","","","","","","","","","","","","feedback_test"
"","","","","","psychophysics","204","718408","0.0-9.0-0.0-0.22","718","","j","","","","","","","","","","","","","key","j","16.665810810811063","720","446","f","false","img/S_ambi40.png","好人","prac_word_first",""
"","","","","","html-keyboard-response","205","718715","0.0-9.0-0.0-1.22","null","<span style='color:red; font-size: 70px;'>错误! </span>","null","","","","","","","","","","","","","","","","","","","","","","","feedback_test"
"","","","","","psychophysics","206","721115","0.0-9.0-0.0-0.23","1249","","f","","","","","","","","","","","","","key","f","16.66674825174887","720","446","f","true","img/C_ambi40.png","常人","prac_word_first",""
"","","","","","html-keyboard-response","207","721432","0.0-9.0-0.0-1.23","null","<span style='color:GreenYellow; font-size: 70px;'>正确! </span>","null","","","","","","","","","","","","","","","","","","","","","","","feedback_test"
"","","","","","html-keyboard-response","208","730463","0.0-10.0","9029","<style>.context{color:white; font-size: 35px; line-height:40px}</style>                              <div><p class='context'>您正确回答了71% 的试次。</p><p class='context'>您的平均反应时为974毫秒。</p><p class='context'>恭喜您完成练习。按任意键进入<span style='color: yellow;'>图形和文字同时呈现条件</span>的练习。</p></div>","j","","","","","","","","","","","","","","","","","","","","","","",""
"","","","","","psychophysics","209","732989","0.0-11.0-0.0-0.0","null","","null","","","","","","","","","","","","","key","null","16.667606666666302","720","446","j","false","img/C_ambi40.png","坏人","prac_simultaneous",""
"","","","","","html-keyboard-response","210","733307","0.0-11.0-0.0-1.0","null","<span class='add_' style='color:yellow; font-size: 70px;'> 太慢! </span>","null","","","","","","","","","","","","","","","","","","","","","","","feedback_test"
"","","","","","psychophysics","211","735232","0.0-11.0-0.0-0.1","919","","j","","","","","","","","","","","","","key","j","16.666657894736424","720","446","f","false","img/C_ambi40.png","好人","prac_simultaneous",""
"","","","","","html-keyboard-response","212","735539","0.0-11.0-0.0-1.1","null","<span style='color:red; font-size: 70px;'>错误! </span>","null","","","","","","","","","","","","","","","","","","","","","","","feedback_test"
"","","","","","psychophysics","213","738002","0.0-11.0-0.0-0.2","1456","","j","","","","","","","","","","","","","key","j","16.666609589040778","720","446","f","false","img/S_ambi40.png","坏人","prac_simultaneous",""
"","","","","","html-keyboard-response","214","738320","0.0-11.0-0.0-1.2","null","<span style='color:red; font-size: 70px;'>错误! </span>","null","","","","","","","","","","","","","","","","","","","","","","","feedback_test"
"","","","","","psychophysics","215","740389","0.0-11.0-0.0-0.3","1067","","f","","","","","","","","","","","","","key","f","17.232762711863547","720","446","f","true","img/T_ambi40.png","坏人","prac_simultaneous",""
"","","","","","html-keyboard-response","216","740697","0.0-11.0-0.0-1.3","null","<span style='color:GreenYellow; font-size: 70px;'>正确! </span>","null","","","","","","","","","","","","","","","","","","","","","","","feedback_test"
"","","","","","psychophysics","217","742748","0.0-11.0-0.0-0.4","1049","","f","","","","","","","","","","","","","key","f","16.804652892562082","720","446","j","false","img/T_ambi40.png","好人","prac_simultaneous",""
"","","","","","html-keyboard-response","218","743053","0.0-11.0-0.0-1.4","null","<span style='color:red; font-size: 70px;'>错误! </span>","null","","","","","","","","","","","","","","","","","","","","","","","feedback_test"
"","","","","","psychophysics","219","745321","0.0-11.0-0.0-0.5","1264","","j","","","","","","","","","","","","","key","j","16.666970149253377","720","446","j","true","img/S_ambi40.png","常人","prac_simultaneous",""
"","","","","","html-keyboard-response","220","745640","0.0-11.0-0.0-1.5","null","<span style='color:GreenYellow; font-size: 70px;'>正确! </span>","null","","","","","","","","","","","","","","","","","","","","","","","feedback_test"
"","","","","","psychophysics","221","747752","0.0-11.0-0.0-0.6","1109","","j","","","","","","","","","","","","","key","j","16.66785600000061","720","446","f","false","img/C_ambi40.png","常人","prac_simultaneous",""
"","","","","","html-keyboard-response","222","748054","0.0-11.0-0.0-1.6","null","<span style='color:red; font-size: 70px;'>错误! </span>","null","","","","","","","","","","","","","","","","","","","","","","","feedback_test"
"","","","","","psychophysics","223","750563","0.0-11.0-0.0-0.7","null","","null","","","","","","","","","","","","","key","null","16.778972972972582","720","446","j","false","img/S_ambi40.png","常人","prac_simultaneous",""
"","","","","","html-keyboard-response","224","750872","0.0-11.0-0.0-1.7","null","<span class='add_' style='color:yellow; font-size: 70px;'> 太慢! </span>","null","","","","","","","","","","","","","","","","","","","","","","","feedback_test"
"","","","","","psychophysics","225","752599","0.0-11.0-0.0-0.8","725","","j","","","","","","","","","","","","","key","j","16.8318019801979","720","446","f","false","img/S_ambi40.png","好人","prac_simultaneous",""
"","","","","","html-keyboard-response","226","752922","0.0-11.0-0.0-1.8","null","<span style='color:red; font-size: 70px;'>错误! </span>","null","","","","","","","","","","","","","","","","","","","","","","","feedback_test"
"","","","","","psychophysics","227","754964","0.0-11.0-0.0-0.9","1041","","j","","","","","","","","","","","","","key","j","16.80689999999983","720","446","j","true","img/T_ambi40.png","好人","prac_simultaneous",""
"","","","","","html-keyboard-response","228","755282","0.0-11.0-0.0-1.9","null","<span style='color:GreenYellow; font-size: 70px;'>正确! </span>","null","","","","","","","","","","","","","","","","","","","","","","","feedback_test"
"","","","","","psychophysics","229","757281","0.0-11.0-0.0-0.10","992","","f","","","","","","","","","","","","","key","f","16.665647058823037","720","446","f","true","img/T_ambi40.png","常人","prac_simultaneous",""
"","","","","","html-keyboard-response","230","757587","0.0-11.0-0.0-1.10","null","<span style='color:GreenYellow; font-size: 70px;'>正确! </span>","null","","","","","","","","","","","","","","","","","","","","","","","feedback_test"
"","","","","","psychophysics","231","760105","0.0-11.0-0.0-0.11","null","","null","","","","","","","","","","","","","key","null","18.028970802920007","720","446","j","false","img/C_ambi40.png","坏人","prac_simultaneous",""
"","","","","","html-keyboard-response","232","760422","0.0-11.0-0.0-1.11","null","<span class='add_' style='color:yellow; font-size: 70px;'> 太慢! </span>","null","","","","","","","","","","","","","","","","","","","","","","","feedback_test"
"","","","","","psychophysics","233","762940","0.0-11.0-0.0-0.12","null","","null","","","","","","","","","","","","","key","null","17.36134722222212","720","446","j","false","img/T_ambi40.png","好人","prac_simultaneous",""
"","","","","","html-keyboard-response","234","763256","0.0-11.0-0.0-1.12","null","<span class='add_' style='color:yellow; font-size: 70px;'> 太慢! </span>","null","","","","","","","","","","","","","","","","","","","","","","","feedback_test"
"","","","","","psychophysics","235","765038","0.0-11.0-0.0-0.13","781","","j","","","","","","","","","","","","","key","j","16.668704761905108","720","446","j","true","img/T_ambi40.png","好人","prac_simultaneous",""
"","","","","","html-keyboard-response","236","765343","0.0-11.0-0.0-1.13","null","<span style='color:GreenYellow; font-size: 70px;'>正确! </span>","null","","","","","","","","","","","","","","","","","","","","","","","feedback_test"
"","","","","","psychophysics","237","767233","0.0-11.0-0.0-0.14","879","","f","","","","","","","","","","","","","key","f","16.667321428572386","720","446","f","true","img/S_ambi40.png","坏人","prac_simultaneous",""
"","","","","","html-keyboard-response","238","767553","0.0-11.0-0.0-1.14","null","<span style='color:GreenYellow; font-size: 70px;'>正确! </span>","null","","","","","","","","","","","","","","","","","","","","","","","feedback_test"
"","","","","","psychophysics","239","769802","0.0-11.0-0.0-0.15","1246","","f","","","","","","","","","","","","","key","f","16.665834586466033","720","446","f","true","img/T_ambi40.png","坏人","prac_simultaneous",""
"","","","","","html-keyboard-response","240","770119","0.0-11.0-0.0-1.15","null","<span style='color:GreenYellow; font-size: 70px;'>正确! </span>","null","","","","","","","","","","","","","","","","","","","","","","","feedback_test"
"","","","","","psychophysics","241","772635","0.0-11.0-0.0-0.16","null","","null","","","","","","","","","","","","","key","null","16.778993288591042","720","446","j","false","img/C_ambi40.png","坏人","prac_simultaneous",""
"","","","","","html-keyboard-response","242","772950","0.0-11.0-0.0-1.16","null","<span class='add_' style='color:yellow; font-size: 70px;'> 太慢! </span>","null","","","","","","","","","","","","","","","","","","","","","","","feedback_test"
"","","","","","psychophysics","243","775447","0.0-11.0-0.0-0.17","1492","","j","","","","","","","","","","","","","key","j","16.779689189188993","720","446","j","true","img/S_ambi40.png","常人","prac_simultaneous",""
"","","","","","html-keyboard-response","244","775775","0.0-11.0-0.0-1.17","null","<span style='color:GreenYellow; font-size: 70px;'>正确! </span>","null","","","","","","","","","","","","","","","","","","","","","","","feedback_test"
"","","","","","psychophysics","245","777907","0.0-11.0-0.0-0.18","1127","","j","","","","","","","","","","","","","key","j","16.6677559055113","720","446","f","false","img/T_ambi40.png","常人","prac_simultaneous",""
"","","","","","html-keyboard-response","246","778216","0.0-11.0-0.0-1.18","null","<span style='color:red; font-size: 70px;'>错误! </span>","null","","","","","","","","","","","","","","","","","","","","","","","feedback_test"
"","","","","","psychophysics","247","780310","0.0-11.0-0.0-0.19","1090","","j","","","","","","","","","","","","","key","j","16.938650406504284","720","446","j","true","img/C_ambi40.png","坏人","prac_simultaneous",""
"","","","","","html-keyboard-response","248","780633","0.0-11.0-0.0-1.19","null","<span style='color:GreenYellow; font-size: 70px;'>正确! </span>","null","","","","","","","","","","","","","","","","","","","","","","","feedback_test"
"","","","","","psychophysics","249","782613","0.0-11.0-0.0-0.20","974","","j","","","","","","","","","","","","","key","j","16.66838135593176","720","446","f","false","img/S_ambi40.png","好人","prac_simultaneous",""
"","","","","","html-keyboard-response","250","782915","0.0-11.0-0.0-1.20","null","<span style='color:red; font-size: 70px;'>错误! </span>","null","","","","","","","","","","","","","","","","","","","","","","","feedback_test"
"","","","","","psychophysics","251","784963","0.0-11.0-0.0-0.21","1040","","f","","","","","","","","","","","","","key","f","16.804520661156616","720","446","f","true","img/C_ambi40.png","常人","prac_simultaneous",""
"","","","","","html-keyboard-response","252","785268","0.0-11.0-0.0-1.21","null","<span style='color:GreenYellow; font-size: 70px;'>正确! </span>","null","","","","","","","","","","","","","","","","","","","","","","","feedback_test"
"","","","","","psychophysics","253","787141","0.0-11.0-0.0-0.22","868","","j","","","","","","","","","","","","","key","j","16.817117117116698","720","446","j","true","img/S_ambi40.png","常人","prac_simultaneous",""
"","","","","","html-keyboard-response","254","787454","0.0-11.0-0.0-1.22","null","<span style='color:GreenYellow; font-size: 70px;'>正确! </span>","null","","","","","","","","","","","","","","","","","","","","","","","feedback_test"
"","","","","","psychophysics","255","789782","0.0-11.0-0.0-0.23","1326","","j","","","","","","","","","","","","","key","j","16.933118518518665","720","446","f","false","img/C_ambi40.png","好人","prac_simultaneous",""
"","","","","","html-keyboard-response","256","790086","0.0-11.0-0.0-1.23","null","<span style='color:red; font-size: 70px;'>错误! </span>","null","","","","","","","","","","","","","","","","","","","","","","","feedback_test"
"","","","","","html-keyboard-response","257","793897","0.0-11.0-1.0-0.0","3810","<style>.context{color:white; font-size: 35px; line-height:40px}</style>                              <div><p class='context'>您正确回答了46% 的试次。</p><p class='context'>您的平均反应时为1069毫秒。</p>","j","","","","","","","","","","","","","","","","","","","","","","",""
"","","","","","instructions","258","802523","0.0-11.0-1.0-1.0","8623","","","","","","","","","","","","","","[{""page_index"":0,""viewing_time"":3402},{""page_index"":1,""viewing_time"":2914},{""page_index"":2,""viewing_time"":2307}]","","","","","","","","","","",""
"","","","","","psychophysics","259","804445","0.0-11.1-0.1-0.24","916","","j","","","","","","","","","","","","","key","j","16.666535087719176","720","446","f","false","img/C_ambi40.png","好人","prac_simultaneous",""
"","","","","","html-keyboard-response","260","804759","0.0-11.1-0.1-1.24","null","<span style='color:red; font-size: 70px;'>错误! </span>","null","","","","","","","","","","","","","","","","","","","","","","","feedback_test"
"","","","","","psychophysics","261","807194","0.0-11.1-0.1-0.25","1432","","f","","","","","","","","","","","","","key","f","16.66617241379291","720","446","f","true","img/S_ambi40.png","坏人","prac_simultaneous",""
"","","","","","html-keyboard-response","262","807503","0.0-11.1-0.1-1.25","null","<span style='color:GreenYellow; font-size: 70px;'>正确! </span>","null","","","","","","","","","","","","","","","","","","","","","","","feedback_test"
"","","","","","psychophysics","263","810006","0.0-11.1-0.1-0.26","null","","null","","","","","","","","","","","","","key","null","16.666583892617425","720","446","j","false","img/C_ambi40.png","坏人","prac_simultaneous",""
"","","","","","html-keyboard-response","264","810321","0.0-11.1-0.1-1.26","null","<span class='add_' style='color:yellow; font-size: 70px;'> 太慢! </span>","null","","","","","","","","","","","","","","","","","","","","","","","feedback_test"
"","","","","","psychophysics","265","812835","0.0-11.1-0.1-0.27","null","","null","","","","","","","","","","","","","key","null","16.78006756756804","720","446","f","false","img/T_ambi40.png","坏人","prac_simultaneous",""
"","","","","","html-keyboard-response","266","813138","0.0-11.1-0.1-1.27","null","<span class='add_' style='color:yellow; font-size: 70px;'> 太慢! </span>","null","","","","","","","","","","","","","","","","","","","","","","","feedback_test"
"","","","","","psychophysics","267","814964","0.0-11.1-0.1-0.28","825","","j","","","","","","","","","","","","","key","j","16.8227570093461","720","446","j","true","img/S_ambi40.png","常人","prac_simultaneous",""
"","","","","","html-keyboard-response","268","815275","0.0-11.1-0.1-1.28","null","<span style='color:GreenYellow; font-size: 70px;'>正确! </span>","null","","","","","","","","","","","","","","","","","","","","","","","feedback_test"
"","","","","","psychophysics","269","817677","0.0-11.1-0.1-0.29","1394","","j","","","","","","","","","","","","","key","j","16.904765957446294","720","446","j","true","img/C_ambi40.png","坏人","prac_simultaneous",""
"","","","","","html-keyboard-response","270","817991","0.0-11.1-0.1-1.29","null","<span style='color:GreenYellow; font-size: 70px;'>正确! </span>","null","","","","","","","","","","","","","","","","","","","","","","","feedback_test"
"","","","","","psychophysics","271","820505","0.0-11.1-0.1-0.30","null","","null","","","","","","","","","","","","","key","null","16.666379999999577","720","446","f","false","img/S_ambi40.png","好人","prac_simultaneous",""
"","","","","","html-keyboard-response","272","820816","0.0-11.1-0.1-1.30","null","<span class='add_' style='color:yellow; font-size: 70px;'> 太慢! </span>","null","","","","","","","","","","","","","","","","","","","","","","","feedback_test"
"","","","","","psychophysics","273","822588","0.0-11.1-0.1-0.31","768","","f","","","","","","","","","","","","","key","f","16.82821153846229","720","446","j","false","img/S_ambi40.png","常人","prac_simultaneous",""
"","","","","","html-keyboard-response","274","822898","0.0-11.1-0.1-1.31","null","<span style='color:red; font-size: 70px;'>错误! </span>","null","","","","","","","","","","","","","","","","","","","","","","","feedback_test"
"","","","","","psychophysics","275","825349","0.0-11.1-0.1-0.32","1449","","f","","","","","","","","","","","","","key","f","17.760824817517452","720","446","f","true","img/T_ambi40.png","常人","prac_simultaneous",""
"","","","","","html-keyboard-response","276","825650","0.0-11.1-0.1-1.32","null","<span style='color:GreenYellow; font-size: 70px;'>正确! </span>","null","","","","","","","","","","","","","","","","","","","","","","","feedback_test"
"","","","","","psychophysics","277","828006","0.0-11.1-0.1-0.33","1351","","j","","","","","","","","","","","","","key","j","16.666524822694903","720","446","j","true","img/T_ambi40.png","好人","prac_simultaneous",""
"","","","","","html-keyboard-response","278","828327","0.0-11.1-0.1-1.33","null","<span style='color:GreenYellow; font-size: 70px;'>正确! </span>","null","","","","","","","","","","","","","","","","","","","","","","","feedback_test"
"","","","","","psychophysics","279","830649","0.0-11.1-0.1-0.34","1317","","f","","","","","","","","","","","","","key","f","16.789635036495874","720","446","f","true","img/C_ambi40.png","常人","prac_simultaneous",""
"","","","","","html-keyboard-response","280","830957","0.0-11.1-0.1-1.34","null","<span style='color:GreenYellow; font-size: 70px;'>正确! </span>","null","","","","","","","","","","","","","","","","","","","","","","","feedback_test"
"","","","","","psychophysics","281","833336","0.0-11.1-0.1-0.35","1372","","j","","","","","","","","","","","","","key","j","16.665475177305343","720","446","j","true","img/T_ambi40.png","好人","prac_simultaneous",""
"","","","","","html-keyboard-response","282","833644","0.0-11.1-0.1-1.35","null","<span style='color:GreenYellow; font-size: 70px;'>正确! </span>","null","","","","","","","","","","","","","","","","","","","","","","","feedback_test"
"","","","","","psychophysics","283","835451","0.0-11.1-0.1-0.36","796","","j","","","","","","","","","","","","","key","j","16.666355140187353","720","446","j","true","img/S_ambi40.png","常人","prac_simultaneous",""
"","","","","","html-keyboard-response","284","835766","0.0-11.1-0.1-1.36","null","<span style='color:GreenYellow; font-size: 70px;'>正确! </span>","null","","","","","","","","","","","","","","","","","","","","","","","feedback_test"
"","","","","","psychophysics","285","837975","0.0-11.1-0.1-0.37","1204","","j","","","","","","","","","","","","","key","j","16.794312977098738","720","446","j","true","img/T_ambi40.png","好人","prac_simultaneous",""
"","","","","","html-keyboard-response","286","838289","0.0-11.1-0.1-1.37","null","<span style='color:GreenYellow; font-size: 70px;'>正确! </span>","null","","","","","","","","","","","","","","","","","","","","","","","feedback_test"
"","","","","","psychophysics","287","840641","0.0-11.1-0.1-0.38","1347","","f","","","","","","","","","","","","","key","f","16.665864285714424","720","446","f","true","img/C_ambi40.png","好人","prac_simultaneous",""
"","","","","","html-keyboard-response","288","840955","0.0-11.1-0.1-1.38","null","<span style='color:GreenYellow; font-size: 70px;'>正确! </span>","null","","","","","","","","","","","","","","","","","","","","","","","feedback_test"
"","","","","","psychophysics","289","843007","0.0-11.1-0.1-0.39","1043","","f","","","","","","","","","","","","","key","f","16.66684426229493","720","446","j","false","img/T_ambi40.png","好人","prac_simultaneous",""
"","","","","","html-keyboard-response","290","843329","0.0-11.1-0.1-1.39","null","<span style='color:red; font-size: 70px;'>错误! </span>","null","","","","","","","","","","","","","","","","","","","","","","","feedback_test"
"","","","","","psychophysics","291","845769","0.0-11.1-0.1-0.40","1438","","f","","","","","","","","","","","","","key","f","16.66692465753454","720","446","f","true","img/T_ambi40.png","坏人","prac_simultaneous",""
"","","","","","html-keyboard-response","292","846082","0.0-11.1-0.1-1.40","null","<span style='color:GreenYellow; font-size: 70px;'>正确! </span>","null","","","","","","","","","","","","","","","","","","","","","","","feedback_test"
"","","","","","psychophysics","293","848365","0.0-11.1-0.1-0.41","1276","","j","","","","","","","","","","","","","key","j","16.915425373134447","720","446","f","false","img/T_ambi40.png","常人","prac_simultaneous",""
"","","","","","html-keyboard-response","294","848668","0.0-11.1-0.1-1.41","null","<span style='color:red; font-size: 70px;'>错误! </span>","null","","","","","","","","","","","","","","","","","","","","","","","feedback_test"
"","","","","","psychophysics","295","850563","0.0-11.1-0.1-0.42","892","","f","","","","","","","","","","","","","key","f","16.66676991150521","720","446","f","true","img/S_ambi40.png","好人","prac_simultaneous",""
"","","","","","html-keyboard-response","296","850873","0.0-11.1-0.1-1.42","null","<span style='color:GreenYellow; font-size: 70px;'>正确! </span>","null","","","","","","","","","","","","","","","","","","","","","","","feedback_test"
"","","","","","psychophysics","297","853217","0.0-11.1-0.1-0.43","1341","","f","","","","","","","","","","","","","key","f","16.66808633093568","720","446","f","true","img/S_ambi40.png","坏人","prac_simultaneous",""
"","","","","","html-keyboard-response","298","853534","0.0-11.1-0.1-1.43","null","<span style='color:GreenYellow; font-size: 70px;'>正确! </span>","null","","","","","","","","","","","","","","","","","","","","","","","feedback_test"
"","","","","","psychophysics","299","855843","0.0-11.1-0.1-0.44","1305","","j","","","","","","","","","","","","","key","j","16.788270072992823","720","446","j","true","img/C_ambi40.png","坏人","prac_simultaneous",""
"","","","","","html-keyboard-response","300","856159","0.0-11.1-0.1-1.44","null","<span style='color:GreenYellow; font-size: 70px;'>正确! </span>","null","","","","","","","","","","","","","","","","","","","","","","","feedback_test"
"","","","","","psychophysics","301","858018","0.0-11.1-0.1-0.45","846","","j","","","","","","","","","","","","","key","j","16.666654545455028","720","446","j","true","img/C_ambi40.png","坏人","prac_simultaneous",""
"","","","","","html-keyboard-response","302","858333","0.0-11.1-0.1-1.45","null","<span style='color:GreenYellow; font-size: 70px;'>正确! </span>","null","","","","","","","","","","","","","","","","","","","","","","","feedback_test"
"","","","","","psychophysics","303","860326","0.0-11.1-0.1-0.46","987","","f","","","","","","","","","","","","","key","f","16.807211864407183","720","446","f","true","img/C_ambi40.png","常人","prac_simultaneous",""
"","","","","","html-keyboard-response","304","860642","0.0-11.1-0.1-1.46","null","<span style='color:GreenYellow; font-size: 70px;'>正确! </span>","null","","","","","","","","","","","","","","","","","","","","","","","feedback_test"
"","","","","","psychophysics","305","863164","0.0-11.1-0.1-0.47","null","","null","","","","","","","","","","","","","key","null","20.160459677419333","720","446","j","false","img/S_ambi40.png","常人","prac_simultaneous",""
"","","","","","html-keyboard-response","306","863479","0.0-11.1-0.1-1.47","null","<span class='add_' style='color:yellow; font-size: 70px;'> 太慢! </span>","null","","","","","","","","","","","","","","","","","","","","","","","feedback_test"
"","","","","","html-keyboard-response","307","873768","0.0-12.0","10287","<style>.context{color:white; font-size: 35px; line-height:40px}</style>                              <div><p class='context'>您正确回答了67% 的试次。</p><p class='context'>您的平均反应时为1206毫秒。</p><p class='context'>恭喜您完成练习。按任意键进入正式实验。</p><p class='footer' style='font-size: 35px; line-height:40px;'>请在进入正式实验实验之前将您的<span style='color: lightgreen;'>食指</span>放在电脑键盘的相应键位上进行按键。</p>","j","","","","","","","","","","","","","","","","","","","","","","",""
"","","","","","html-keyboard-response","308","886594","0.0-13.0-0.0-0.0","12821","
      <p>请您将手指放在按键上，准备进入呈现顺序为<span style='color: yellow;'>先图形后文字条件</span>的正式匹配任务</p>
      <p> <div style = ""color: green""><按任意键进入下一阶段的匹配任务></div></p>
      ","j","","","","","","","","","","","","","","","","","","","","","","",""
"","","","","","psychophysics","309","888656","0.0-13.0-0.0-1.0-0.0-0.0","901","","f","","","","","","","","","","","","","key","f","16.666544715447042","720","446","f","true","img/T_ambi40.png","常人","image_first",""
"","","","","","html-keyboard-response","310","888966","0.0-13.0-0.0-1.0-0.0-1.0","null","<span style='color:GreenYellow; font-size: 70px;'>正确! </span>","null","","","","","","","","","","","","","","","","","","","","","","","feedback_test"
"","","","","","psychophysics","311","891234","0.0-13.0-0.0-1.0-0.0-0.1","1118","","j","","","","","","","","","","","","","key","j","16.7915223880598","720","446","j","true","img/C_ambi40.png","坏人","image_first",""
"","","","","","html-keyboard-response","312","891547","0.0-13.0-0.0-1.0-0.0-1.1","null","<span style='color:GreenYellow; font-size: 70px;'>正确! </span>","null","","","","","","","","","","","","","","","","","","","","","","","feedback_test"
"","","","","","psychophysics","313","893773","0.0-13.0-0.0-1.0-0.0-0.2","1073","","f","","","","","","","","","","","","","key","f","23.333810526315172","720","446","f","true","img/C_ambi40.png","常人","image_first",""
"","","","","","html-keyboard-response","314","894082","0.0-13.0-0.0-1.0-0.0-1.2","null","<span style='color:GreenYellow; font-size: 70px;'>正确! </span>","null","","","","","","","","","","","","","","","","","","","","","","","feedback_test"
"","","","","","psychophysics","315","895984","0.0-13.0-0.0-1.0-0.0-0.3","747","","j","","","","","","","","","","","","","key","j","23.542350000000443","720","446","j","true","img/C_ambi40.png","坏人","image_first",""
"","","","","","html-keyboard-response","316","896297","0.0-13.0-0.0-1.0-0.0-1.3","null","<span style='color:GreenYellow; font-size: 70px;'>正确! </span>","null","","","","","","","","","","","","","","","","","","","","","","","feedback_test"
"","","","","","psychophysics","317","898314","0.0-13.0-0.0-1.0-0.0-0.4","861","","j","","","","","","","","","","","","","key","j","18.018792792792887","720","446","j","true","img/S_ambi40.png","常人","image_first",""
"","","","","","html-keyboard-response","318","898621","0.0-13.0-0.0-1.0-0.0-1.4","null","<span style='color:GreenYellow; font-size: 70px;'>正确! </span>","null","","","","","","","","","","","","","","","","","","","","","","","feedback_test"
"","","","","","psychophysics","319","900680","0.0-13.0-0.0-1.0-0.0-0.5","901","","f","","","","","","","","","","","","","key","f","19.579495145631864","720","446","j","false","img/S_ambi40.png","常人","image_first",""
"","","","","","html-keyboard-response","320","900986","0.0-13.0-0.0-1.0-0.0-1.5","null","<span style='color:red; font-size: 70px;'>错误! </span>","null","","","","","","","","","","","","","","","","","","","","","","","feedback_test"
"","","","","","psychophysics","321","903430","0.0-13.0-0.0-1.0-0.0-0.6","1293","","f","","","","","","","","","","","","","key","f","16.929739436620032","720","446","f","true","img/S_ambi40.png","好人","image_first",""
"","","","","","html-keyboard-response","322","903735","0.0-13.0-0.0-1.0-0.0-1.6","null","<span style='color:GreenYellow; font-size: 70px;'>正确! </span>","null","","","","","","","","","","","","","","","","","","","","","","","feedback_test"
"","","","","","psychophysics","323","905926","0.0-13.0-0.0-1.0-0.0-0.7","1039","","f","","","","","","","","","","","","","key","f","16.837328125000568","720","446","f","true","img/S_ambi40.png","坏人","image_first",""
"","","","","","html-keyboard-response","324","906235","0.0-13.0-0.0-1.0-0.0-1.7","null","<span style='color:GreenYellow; font-size: 70px;'>正确! </span>","null","","","","","","","","","","","","","","","","","","","","","","","feedback_test"
"","","","","","psychophysics","325","908442","0.0-13.0-0.0-1.0-0.0-0.8","1054","","j","","","","","","","","","","","","","key","j","16.7031538461541","720","446","j","true","img/T_ambi40.png","好人","image_first",""
"","","","","","html-keyboard-response","326","908760","0.0-13.0-0.0-1.0-0.0-1.8","null","<span style='color:GreenYellow; font-size: 70px;'>正确! </span>","null","","","","","","","","","","","","","","","","","","","","","","","feedback_test"
"","","","","","psychophysics","327","910803","0.0-13.0-0.0-1.0-0.0-0.9","887","","j","","","","","","","","","","","","","key","j","18.484881818181286","720","446","j","true","img/T_ambi40.png","好人","image_first",""
"","","","","","html-keyboard-response","328","911117","0.0-13.0-0.0-1.0-0.0-1.9","null","<span style='color:GreenYellow; font-size: 70px;'>正确! </span>","null","","","","","","","","","","","","","","","","","","","","","","","feedback_test"
"","","","","","psychophysics","329","913379","0.0-13.0-0.0-1.0-0.0-0.10","1108","","f","","","","","","","","","","","","","key","f","21.42919999999992","720","446","f","true","img/C_ambi40.png","好人","image_first",""
"","","","","","html-keyboard-response","330","913685","0.0-13.0-0.0-1.0-0.0-1.10","null","<span style='color:GreenYellow; font-size: 70px;'>正确! </span>","null","","","","","","","","","","","","","","","","","","","","","","","feedback_test"
"","","","","","psychophysics","331","915652","0.0-13.0-0.0-1.0-0.0-0.11","815","","j","","","","","","","","","","","","","key","j","21.34006666666699","720","446","f","false","img/T_ambi40.png","坏人","image_first",""
"","","","","","html-keyboard-response","332","915960","0.0-13.0-0.0-1.0-0.0-1.11","null","<span style='color:red; font-size: 70px;'>错误! </span>","null","","","","","","","","","","","","","","","","","","","","","","","feedback_test"
"","","","","","psychophysics","333","918621","0.0-13.0-0.0-1.0-0.0-0.12","null","","null","","","","","","","","","","","","","key","null","18.929292857142197","720","446","f","false","img/T_ambi40.png","常人","image_first",""
"","","","","","html-keyboard-response","334","918930","0.0-13.0-0.0-1.0-0.0-1.12","null","<span class='add_' style='color:yellow; font-size: 70px;'> 太慢! </span>","null","","","","","","","","","","","","","","","","","","","","","","","feedback_test"
"","","","","","psychophysics","335","921203","0.0-13.0-0.0-1.0-0.0-0.13","1120","","j","","","","","","","","","","","","","key","j","16.791977611940297","720","446","j","true","img/C_ambi40.png","坏人","image_first",""
"","","","","","html-keyboard-response","336","921521","0.0-13.0-0.0-1.0-0.0-1.13","null","<span style='color:GreenYellow; font-size: 70px;'>正确! </span>","null","","","","","","","","","","","","","","","","","","","","","","","feedback_test"
"","","","","","psychophysics","337","924009","0.0-13.0-0.0-1.0-0.0-0.14","1333","","f","","","","","","","","","","","","","key","f","16.780306122448696","720","446","f","true","img/T_ambi40.png","坏人","image_first",""
"","","","","","html-keyboard-response","338","924327","0.0-13.0-0.0-1.0-0.0-1.14","null","<span style='color:GreenYellow; font-size: 70px;'>正确! </span>","null","","","","","","","","","","","","","","","","","","","","","","","feedback_test"
"","","","","","psychophysics","339","926854","0.0-13.0-0.0-1.0-0.0-0.15","1370","","j","","","","","","","","","","","","","key","j","16.778885906040294","720","446","j","true","img/T_ambi40.png","好人","image_first",""
"","","","","","html-keyboard-response","340","927163","0.0-13.0-0.0-1.0-0.0-1.15","null","<span style='color:GreenYellow; font-size: 70px;'>正确! </span>","null","","","","","","","","","","","","","","","","","","","","","","","feedback_test"
"","","","","","psychophysics","341","929550","0.0-13.0-0.0-1.0-0.0-0.16","1235","","j","","","","","","","","","","","","","key","j","16.78471631205687","720","446","j","true","img/S_ambi40.png","常人","image_first",""
"","","","","","html-keyboard-response","342","929854","0.0-13.0-0.0-1.0-0.0-1.16","null","<span style='color:GreenYellow; font-size: 70px;'>正确! </span>","null","","","","","","","","","","","","","","","","","","","","","","","feedback_test"
"","","","","","psychophysics","343","932325","0.0-13.0-0.0-1.0-0.0-0.17","1320","","f","","","","","","","","","","","","","key","f","16.780856164383593","720","446","j","false","img/T_ambi40.png","好人","image_first",""
"","","","","","html-keyboard-response","344","932634","0.0-13.0-0.0-1.0-0.0-1.17","null","<span style='color:red; font-size: 70px;'>错误! </span>","null","","","","","","","","","","","","","","","","","","","","","","","feedback_test"
"","","","","","psychophysics","345","934626","0.0-13.0-0.0-1.0-0.0-0.18","839","","f","","","","","","","","","","","","","key","f","16.807915254237557","720","446","f","true","img/C_ambi40.png","常人","image_first",""
"","","","","","html-keyboard-response","346","934946","0.0-13.0-0.0-1.0-0.0-1.18","null","<span style='color:GreenYellow; font-size: 70px;'>正确! </span>","null","","","","","","","","","","","","","","","","","","","","","","","feedback_test"
"","","","","","psychophysics","347","936948","0.0-13.0-0.0-1.0-0.0-0.19","848","","j","","","","","","","","","","","","","key","j","16.66589999999948","720","446","f","false","img/S_ambi40.png","坏人","image_first",""
"","","","","","html-keyboard-response","348","937262","0.0-13.0-0.0-1.0-0.0-1.19","null","<span style='color:red; font-size: 70px;'>错误! </span>","null","","","","","","","","","","","","","","","","","","","","","","","feedback_test"
"","","","","","psychophysics","349","939582","0.0-13.0-0.0-1.0-0.0-0.20","1162","","f","","","","","","","","","","","","","key","f","16.667499999999933","720","446","f","true","img/S_ambi40.png","好人","image_first",""
"","","","","","html-keyboard-response","350","939892","0.0-13.0-0.0-1.0-0.0-1.20","null","<span style='color:GreenYellow; font-size: 70px;'>正确! </span>","null","","","","","","","","","","","","","","","","","","","","","","","feedback_test"
"","","","","","psychophysics","351","942165","0.0-13.0-0.0-1.0-0.0-0.21","1119","","j","","","","","","","","","","","","","key","j","16.79159701492554","720","446","j","true","img/C_ambi40.png","坏人","image_first",""
"","","","","","html-keyboard-response","352","942472","0.0-13.0-0.0-1.0-0.0-1.21","null","<span style='color:GreenYellow; font-size: 70px;'>正确! </span>","null","","","","","","","","","","","","","","","","","","","","","","","feedback_test"
"","","","","","psychophysics","353","944346","0.0-13.0-0.0-1.0-0.0-0.22","719","","j","","","","","","","","","","","","","key","j","16.667117117116486","720","446","j","true","img/S_ambi40.png","常人","image_first",""
"","","","","","html-keyboard-response","354","944653","0.0-13.0-0.0-1.0-0.0-1.22","null","<span style='color:GreenYellow; font-size: 70px;'>正确! </span>","null","","","","","","","","","","","","","","","","","","","","","","","feedback_test"
"","","","","","psychophysics","355","947076","0.0-13.0-0.0-1.0-0.0-0.23","1271","","f","","","","","","","","","","","","","key","f","16.66731944444473","720","446","f","true","img/C_ambi40.png","好人","image_first",""
"","","","","","html-keyboard-response","356","947387","0.0-13.0-0.0-1.0-0.0-1.23","null","<span style='color:GreenYellow; font-size: 70px;'>正确! </span>","null","","","","","","","","","","","","","","","","","","","","","","","feedback_test"
"","","","","","psychophysics","357","949118","0.0-13.0-0.0-1.0-0.0-0.24","578","","j","","","","","","","","","","","","","key","j","16.833039603960277","720","446","j","true","img/S_ambi40.png","常人","image_first",""
"","","","","","html-keyboard-response","358","949433","0.0-13.0-0.0-1.0-0.0-1.24","null","<span style='color:GreenYellow; font-size: 70px;'>正确! </span>","null","","","","","","","","","","","","","","","","","","","","","","","feedback_test"
"","","","","","psychophysics","359","951428","0.0-13.0-0.0-1.0-0.0-0.25","841","","f","","","","","","","","","","","","","key","f","16.66775423728849","720","446","f","true","img/C_ambi40.png","常人","image_first",""
"","","","","","html-keyboard-response","360","951741","0.0-13.0-0.0-1.0-0.0-1.25","null","<span style='color:GreenYellow; font-size: 70px;'>正确! </span>","null","","","","","","","","","","","","","","","","","","","","","","","feedback_test"
"","","","","","psychophysics","361","953706","0.0-13.0-0.0-1.0-0.0-0.26","811","","f","","","","","","","","","","","","","key","f","16.8096206896549","720","446","f","true","img/T_ambi40.png","常人","image_first",""
"","","","","","html-keyboard-response","362","954019","0.0-13.0-0.0-1.0-0.0-1.26","null","<span style='color:GreenYellow; font-size: 70px;'>正确! </span>","null","","","","","","","","","","","","","","","","","","","","","","","feedback_test"
"","","","","","psychophysics","363","956685","0.0-13.0-0.0-1.0-0.0-0.27","null","","null","","","","","","","","","","","","","key","null","17.323835526315776","720","446","j","false","img/T_ambi40.png","好人","image_first",""
"","","","","","html-keyboard-response","364","956990","0.0-13.0-0.0-1.0-0.0-1.27","null","<span class='add_' style='color:yellow; font-size: 70px;'> 太慢! </span>","null","","","","","","","","","","","","","","","","","","","","","","","feedback_test"
"","","","","","psychophysics","365","959271","0.0-13.0-0.0-1.0-0.0-0.28","1123","","f","","","","","","","","","","","","","key","f","18.733173553719308","720","446","f","true","img/S_ambi40.png","好人","image_first",""
"","","","","","html-keyboard-response","366","959588","0.0-13.0-0.0-1.0-0.0-1.28","null","<span style='color:GreenYellow; font-size: 70px;'>正确! </span>","null","","","","","","","","","","","","","","","","","","","","","","","feedback_test"
"","","","","","psychophysics","367","962253","0.0-13.0-0.0-1.0-0.0-0.29","null","","null","","","","","","","","","","","","","key","null","16.667746835442767","720","446","f","false","img/T_ambi40.png","坏人","image_first",""
"","","","","","html-keyboard-response","368","962569","0.0-13.0-0.0-1.0-0.0-1.29","null","<span class='add_' style='color:yellow; font-size: 70px;'> 太慢! </span>","null","","","","","","","","","","","","","","","","","","","","","","","feedback_test"
"","","","","","psychophysics","369","964997","0.0-13.0-0.0-1.0-0.0-0.30","1276","","f","","","","","","","","","","","","","key","f","16.66704166666669","720","446","j","false","img/T_ambi40.png","好人","image_first",""
"","","","","","html-keyboard-response","370","965305","0.0-13.0-0.0-1.0-0.0-1.30","null","<span style='color:red; font-size: 70px;'>错误! </span>","null","","","","","","","","","","","","","","","","","","","","","","","feedback_test"
"","","","","","psychophysics","371","967478","0.0-13.0-0.0-1.0-0.0-0.31","1008","","f","","","","","","","","","","","","","key","f","16.667403100774976","720","446","f","true","img/S_ambi40.png","坏人","image_first",""
"","","","","","html-keyboard-response","372","967798","0.0-13.0-0.0-1.0-0.0-1.31","null","<span style='color:GreenYellow; font-size: 70px;'>正确! </span>","null","","","","","","","","","","","","","","","","","","","","","","","feedback_test"
"","","","","","psychophysics","373","969863","0.0-13.0-0.0-1.0-0.0-0.32","910","","j","","","","","","","","","","","","","key","j","17.671887931034597","720","446","j","true","img/C_ambi40.png","坏人","image_first",""
"","","","","","html-keyboard-response","374","970184","0.0-13.0-0.0-1.0-0.0-1.32","null","<span style='color:GreenYellow; font-size: 70px;'>正确! </span>","null","","","","","","","","","","","","","","","","","","","","","","","feedback_test"
"","","","","","psychophysics","375","972141","0.0-13.0-0.0-1.0-0.0-0.33","805","","f","","","","","","","","","","","","","key","f","16.81159482758637","720","446","f","true","img/C_ambi40.png","好人","image_first",""
"","","","","","html-keyboard-response","376","972446","0.0-13.0-0.0-1.0-0.0-1.33","null","<span style='color:GreenYellow; font-size: 70px;'>正确! </span>","null","","","","","","","","","","","","","","","","","","","","","","","feedback_test"
"","","","","","psychophysics","377","974827","0.0-13.0-0.0-1.0-0.0-0.34","1224","","f","","","","","","","","","","","","","key","f","16.90535714285714","720","446","j","false","img/C_ambi40.png","坏人","image_first",""
"","","","","","html-keyboard-response","378","975143","0.0-13.0-0.0-1.0-0.0-1.34","null","<span style='color:red; font-size: 70px;'>错误! </span>","null","","","","","","","","","","","","","","","","","","","","","","","feedback_test"
"","","","","","psychophysics","379","976993","0.0-13.0-0.0-1.0-0.0-0.35","694","","j","","","","","","","","","","","","","key","j","16.975703703704145","720","446","j","true","img/S_ambi40.png","常人","image_first",""
"","","","","","html-keyboard-response","380","977299","0.0-13.0-0.0-1.0-0.0-1.35","null","<span style='color:GreenYellow; font-size: 70px;'>正确! </span>","null","","","","","","","","","","","","","","","","","","","","","","","feedback_test"
"","","","","","psychophysics","381","979531","0.0-13.0-0.0-1.0-0.0-0.36","1078","","f","","","","","","","","","","","","","key","f","16.79342424242394","720","446","j","false","img/C_ambi40.png","坏人","image_first",""
"","","","","","html-keyboard-response","382","979847","0.0-13.0-0.0-1.0-0.0-1.36","null","<span style='color:red; font-size: 70px;'>错误! </span>","null","","","","","","","","","","","","","","","","","","","","","","","feedback_test"
"","","","","","psychophysics","383","982279","0.0-13.0-0.0-1.0-0.0-0.37","1276","","f","","","","","","","","","","","","","key","f","16.783048611111653","720","446","f","true","img/C_ambi40.png","常人","image_first",""
"","","","","","html-keyboard-response","384","982594","0.0-13.0-0.0-1.0-0.0-1.37","null","<span style='color:GreenYellow; font-size: 70px;'>正确! </span>","null","","","","","","","","","","","","","","","","","","","","","","","feedback_test"
"","","","","","psychophysics","385","984907","0.0-13.0-0.0-1.0-0.0-0.38","1159","","j","","","","","","","","","","","","","key","j","16.78806569343042","720","446","j","true","img/T_ambi40.png","好人","image_first",""
"","","","","","html-keyboard-response","386","985212","0.0-13.0-0.0-1.0-0.0-1.38","null","<span style='color:GreenYellow; font-size: 70px;'>正确! </span>","null","","","","","","","","","","","","","","","","","","","","","","","feedback_test"
"","","","","","psychophysics","387","987815","0.0-13.0-0.0-1.0-0.0-0.39","1446","","f","","","","","","","","","","","","","key","f","16.66839999999971","720","446","f","true","img/S_ambi40.png","坏人","image_first",""
"","","","","","html-keyboard-response","388","988129","0.0-13.0-0.0-1.0-0.0-1.39","null","<span style='color:GreenYellow; font-size: 70px;'>正确! </span>","null","","","","","","","","","","","","","","","","","","","","","","","feedback_test"
"","","","","","psychophysics","389","990330","0.0-13.0-0.0-1.0-0.0-0.40","1046","","j","","","","","","","","","","","","","key","j","16.795938461538082","720","446","j","true","img/T_ambi40.png","好人","image_first",""
"","","","","","html-keyboard-response","390","990644","0.0-13.0-0.0-1.0-0.0-1.40","null","<span style='color:GreenYellow; font-size: 70px;'>正确! </span>","null","","","","","","","","","","","","","","","","","","","","","","","feedback_test"
"","","","","","psychophysics","391","993212","0.0-13.0-0.0-1.0-0.0-0.41","1416","","f","","","","","","","","","","","","","key","f","16.77765131578934","720","446","j","false","img/C_ambi40.png","坏人","image_first",""
"","","","","","html-keyboard-response","392","993521","0.0-13.0-0.0-1.0-0.0-1.41","null","<span style='color:red; font-size: 70px;'>错误! </span>","null","","","","","","","","","","","","","","","","","","","","","","","feedback_test"
"","","","","","psychophysics","393","995991","0.0-13.0-0.0-1.0-0.0-0.42","1317","","f","","","","","","","","","","","","","key","f","16.66644217687038","720","446","f","true","img/C_ambi40.png","好人","image_first",""
"","","","","","html-keyboard-response","394","996300","0.0-13.0-0.0-1.0-0.0-1.42","null","<span style='color:GreenYellow; font-size: 70px;'>正确! </span>","null","","","","","","","","","","","","","","","","","","","","","","","feedback_test"
"","","","","","psychophysics","395","998102","0.0-13.0-0.0-1.0-0.0-0.43","651","","j","","","","","","","","","","","","","key","j","16.70210476190495","720","446","j","true","img/S_ambi40.png","常人","image_first",""
"","","","","","html-keyboard-response","396","998420","0.0-13.0-0.0-1.0-0.0-1.43","null","<span style='color:GreenYellow; font-size: 70px;'>正确! </span>","null","","","","","","","","","","","","","","","","","","","","","","","feedback_test"
"","","","","","psychophysics","397","1000612","0.0-13.0-0.0-1.0-0.0-0.44","1039","","f","","","","","","","","","","","","","key","f","16.66688461538422","720","446","f","true","img/T_ambi40.png","常人","image_first",""
"","","","","","html-keyboard-response","398","1000918","0.0-13.0-0.0-1.0-0.0-1.44","null","<span style='color:GreenYellow; font-size: 70px;'>正确! </span>","null","","","","","","","","","","","","","","","","","","","","","","","feedback_test"
"","","","","","psychophysics","399","1003181","0.0-13.0-0.0-1.0-0.0-0.45","1112","","f","","","","","","","","","","","","","key","f","16.666410447761187","720","446","f","true","img/T_ambi40.png","坏人","image_first",""
"","","","","","html-keyboard-response","400","1003493","0.0-13.0-0.0-1.0-0.0-1.45","null","<span style='color:GreenYellow; font-size: 70px;'>正确! </span>","null","","","","","","","","","","","","","","","","","","","","","","","feedback_test"
"","","","","","psychophysics","401","1006161","0.0-13.0-0.0-1.0-0.0-0.46","null","","null","","","","","","","","","","","","","key","null","16.879617834395496","720","446","f","false","img/S_ambi40.png","好人","image_first",""
"","","","","","html-keyboard-response","402","1006473","0.0-13.0-0.0-1.0-0.0-1.46","null","<span class='add_' style='color:yellow; font-size: 70px;'> 太慢! </span>","null","","","","","","","","","","","","","","","","","","","","","","","feedback_test"
"","","","","","psychophysics","403","1008358","0.0-13.0-0.0-1.0-0.0-0.47","731","","j","","","","","","","","","","","","","key","j","16.817198198198483","720","446","j","true","img/S_ambi40.png","常人","image_first",""
"","","","","","html-keyboard-response","404","1008675","0.0-13.0-0.0-1.0-0.0-1.47","null","<span style='color:GreenYellow; font-size: 70px;'>正确! </span>","null","","","","","","","","","","","","","","","","","","","","","","","feedback_test"
"","","","","","psychophysics","405","1010552","0.0-13.0-0.0-1.0-0.0-0.48","718","","f","","","","","","","","","","","","","key","f","16.818690909090748","720","446","f","true","img/S_ambi40.png","好人","image_first",""
"","","","","","html-keyboard-response","406","1010869","0.0-13.0-0.0-1.0-0.0-1.48","null","<span style='color:GreenYellow; font-size: 70px;'>正确! </span>","null","","","","","","","","","","","","","","","","","","","","","","","feedback_test"
"","","","","","psychophysics","407","1013463","0.0-13.0-0.0-1.0-0.0-0.49","1443","","f","","","","","","","","","","","","","key","f","16.667181818182097","720","446","j","false","img/T_ambi40.png","好人","image_first",""
"","","","","","html-keyboard-response","408","1013772","0.0-13.0-0.0-1.0-0.0-1.49","null","<span style='color:red; font-size: 70px;'>错误! </span>","null","","","","","","","","","","","","","","","","","","","","","","","feedback_test"
"","","","","","psychophysics","409","1016316","0.0-13.0-0.0-1.0-0.0-0.50","1384","","f","","","","","","","","","","","","","key","f","16.7783666666667","720","446","f","true","img/C_ambi40.png","常人","image_first",""
"","","","","","html-keyboard-response","410","1016632","0.0-13.0-0.0-1.0-0.0-1.50","null","<span style='color:GreenYellow; font-size: 70px;'>正确! </span>","null","","","","","","","","","","","","","","","","","","","","","","","feedback_test"
"","","","","","psychophysics","411","1018873","0.0-13.0-0.0-1.0-0.0-0.51","1087","","j","","","","","","","","","","","","","key","j","16.79116541353366","720","446","f","false","img/T_ambi40.png","常人","image_first",""
"","","","","","html-keyboard-response","412","1019180","0.0-13.0-0.0-1.0-0.0-1.51","null","<span style='color:red; font-size: 70px;'>错误! </span>","null","","","","","","","","","","","","","","","","","","","","","","","feedback_test"
"","","","","","psychophysics","413","1021471","0.0-13.0-0.0-1.0-0.0-0.52","1136","","f","","","","","","","","","","","","","key","f","16.913548148148347","720","446","f","true","img/S_ambi40.png","坏人","image_first",""
"","","","","","html-keyboard-response","414","1021788","0.0-13.0-0.0-1.0-0.0-1.52","null","<span style='color:GreenYellow; font-size: 70px;'>正确! </span>","null","","","","","","","","","","","","","","","","","","","","","","","feedback_test"
"","","","","","psychophysics","415","1023851","0.0-13.0-0.0-1.0-0.0-0.53","904","","f","","","","","","","","","","","","","key","f","16.804231404958962","720","446","f","true","img/T_ambi40.png","坏人","image_first",""
"","","","","","html-keyboard-response","416","1024163","0.0-13.0-0.0-1.0-0.0-1.53","null","<span style='color:GreenYellow; font-size: 70px;'>正确! </span>","null","","","","","","","","","","","","","","","","","","","","","","","feedback_test"
"","","","","","psychophysics","417","1026016","0.0-13.0-0.0-1.0-0.0-0.54","700","","j","","","","","","","","","","","","","key","j","16.8206513761468","720","446","j","true","img/T_ambi40.png","好人","image_first",""
"","","","","","html-keyboard-response","418","1026336","0.0-13.0-0.0-1.0-0.0-1.54","null","<span style='color:GreenYellow; font-size: 70px;'>正确! </span>","null","","","","","","","","","","","","","","","","","","","","","","","feedback_test"
"","","","","","psychophysics","419","1028394","0.0-13.0-0.0-1.0-0.0-0.55","904","","j","","","","","","","","","","","","","key","j","16.805148760330177","720","446","j","true","img/S_ambi40.png","常人","image_first",""
"","","","","","html-keyboard-response","420","1028713","0.0-13.0-0.0-1.0-0.0-1.55","null","<span style='color:GreenYellow; font-size: 70px;'>正确! </span>","null","","","","","","","","","","","","","","","","","","","","","","","feedback_test"
"","","","","","psychophysics","421","1030983","0.0-13.0-0.0-1.0-0.0-0.56","1115","","f","","","","","","","","","","","","","key","f","16.918293233082938","720","446","f","true","img/C_ambi40.png","好人","image_first",""
"","","","","","html-keyboard-response","422","1031304","0.0-13.0-0.0-1.0-0.0-1.56","null","<span style='color:GreenYellow; font-size: 70px;'>正确! </span>","null","","","","","","","","","","","","","","","","","","","","","","","feedback_test"
"","","","","","psychophysics","423","1033342","0.0-13.0-0.0-1.0-0.0-0.57","879","","f","","","","","","","","","","","","","key","f","16.667388429752673","720","446","j","false","img/C_ambi40.png","坏人","image_first",""
"","","","","","html-keyboard-response","424","1033664","0.0-13.0-0.0-1.0-0.0-1.57","null","<span style='color:red; font-size: 70px;'>错误! </span>","null","","","","","","","","","","","","","","","","","","","","","","","feedback_test"
"","","","","","psychophysics","425","1035590","0.0-13.0-0.0-1.0-0.0-0.58","772","","j","","","","","","","","","","","","","key","j","16.667695652173183","720","446","j","true","img/S_ambi40.png","常人","image_first",""
"","","","","","html-keyboard-response","426","1035911","0.0-13.0-0.0-1.0-0.0-1.58","null","<span style='color:GreenYellow; font-size: 70px;'>正确! </span>","null","","","","","","","","","","","","","","","","","","","","","","","feedback_test"
"","","","","","psychophysics","427","1038580","0.0-13.0-0.0-1.0-0.0-0.59","null","","null","","","","","","","","","","","","","key","null","16.77312025316487","720","446","j","false","img/C_ambi40.png","坏人","image_first",""
"","","","","","html-keyboard-response","428","1038895","0.0-13.0-0.0-1.0-0.0-1.59","null","<span class='add_' style='color:yellow; font-size: 70px;'> 太慢! </span>","null","","","","","","","","","","","","","","","","","","","","","","","feedback_test"
"","","","","","html-keyboard-response","429","1050289","0.0-13.0-0.0-1.0-1.0","11392","<style>.context{color:white; font-size: 35px; line-height:40px}</style>                              <div><p class='context'>您正确回答了74% 的试次。</p><p class='context'>您的平均反应时为1030毫秒。</p><p class='context'>请按任意键进入休息</p></div>","j","","","","","","","","","","","","","","","","","","","","","","",""
"","","","","","html-button-response","430","1118165","0.0-13.0-0.0-1.0-2.0","67873","
                      <p>您当前还剩余3组实验</p>
                      <p>现在是休息时间，当您结束休息后，您可以点击 结束休息 按钮 继续</p>
                      <p>建议休息时间还剩余<span id=""iii"">60</span>秒</p>","0","","","","","","","","","","","","","","","","","","","","","","",""
