"success","timeout","failed_images","failed_audio","failed_video","trial_type","trial_index","time_elapsed","internal_node_id","rt","stimulus","response","value","item_width_mm","item_height_mm","item_width_px","px2mm","view_dist_mm","item_width_deg","px2deg","scale_factor","win_width_deg","win_height_deg","view_history","response_type","key_press","avg_frame_time","center_x","center_y","correct_response","correct","Image","word","condition","screen_id"
"true","false","[]","[]","[]","preload","0","19","0.0-0.0","","","","","","","","","","","","","","","","","","","","","","","","","",""
"","","","","","html-keyboard-response","1","4988","0.0-1.0","4962","
     <p>您好，欢迎参加本次实验。</p>
     <p>为充分保障您的权利，请确保您已经知晓并同意《参与实验同意书》以及《数据公开知情同意书》。</p>
     <p>如果您未见过上述内容，请咨询实验员。</p>
     <p>如果您选择继续实验，则表示您已经清楚两份知情同意书的内容并同意。</p>
     <p> <div style = ""color: green""><按任意键至下页></div> </p>
     ","enter","","","","","","","","","","","","","","","","","","","","","","",""
"","","","","","html-keyboard-response","2","11630","0.0-2.0","6642","
     <p>本实验首先需要您填写一些基本个人信息。</p>
     <p> <div style = ""color: green""><按任意键至下页></div></p>
     ","enter","","","","","","","","","","","","","","","","","","","","","","",""
"","","","","","call-function","3","11631","0.0-3.0-0.0","","","","","","","","","","","","","","","","","","","","","","","","","",""
"","","","","","survey-html-form","4","14310","0.0-3.0-1.0","2672","","{""Q0"":""2""}","","","","","","","","","","","","","","","","","","","","","","",""
"","","","","","html-button-response","5","15601","0.0-3.0-2.0","1286","<p style = 'color : white'>您的性别</p>","1","","","","","","","","","","","","","","","","","","","","","","",""
"","","","","","survey-html-form","6","18096","0.0-3.0-3.0","2492","","{""Q0"":""2001""}","","","","","","","","","","","","","","","","","","","","","","",""
"","","","","","survey-html-form","7","20154","0.0-3.0-4.0","2057","","{""Q0"":""5""}","","","","","","","","","","","","","","","","","","","","","","",""
"","","","","","virtual-chinrest","8","138342","0.0-4.0","118186","","","","85.6","53.98","469.3416499836025","5.487156054955352","521.32","9.38683299967205","50","0.8693027776551567","28.8","14.08","","","","","","","","","","","",""
"true","","","","","fullscreen","9","141801","0.0-5.0","","","","","","","","","","","","","","","","","","","","","","","","","",""
"","","","","","instructions","10","198575","0.0-6.0","56773","","","","","","","","","","","","","","[{""page_index"":0,""viewing_time"":6999},{""page_index"":1,""viewing_time"":26168},{""page_index"":2,""viewing_time"":18692},{""page_index"":3,""viewing_time"":4914}]","","","","","","","","","","",""
"","","","","","psychophysics","11","201264","0.0-7.0-0.0-0.0","null","","null","","","","","","","","","","","","","key","null","16.66700000000009","720","446","j","false","img/C_ambi40.png","好人","prac_image_first",""
"","","","","","html-keyboard-response","12","201570","0.0-7.0-0.0-1.0","null","<span class='add_' style='color:yellow; font-size: 70px;'> 太慢! </span>","null","","","","","","","","","","","","","","","","","","","","","","","feedback_test"
"","","","","","psychophysics","13","203492","0.0-7.0-0.0-0.1","767","","j","","","","","","","","","","","","","key","j","16.667000000000005","720","446","j","true","img/S_ambi40.png","常人","prac_image_first",""
"","","","","","html-keyboard-response","14","203797","0.0-7.0-0.0-1.1","null","<span style='color:GreenYellow; font-size: 70px;'>正确! </span>","null","","","","","","","","","","","","","","","","","","","","","","","feedback_test"
"","","","","","psychophysics","15","205417","0.0-7.0-0.0-0.2","467","","j","","","","","","","","","","","","","key","j","17.017884210526244","720","446","f","false","img/C_ambi40.png","常人","prac_image_first",""
"","","","","","html-keyboard-response","16","205721","0.0-7.0-0.0-1.2","null","<span style='color:red; font-size: 70px;'>错误! </span>","null","","","","","","","","","","","","","","","","","","","","","","","feedback_test"
"","","","","","psychophysics","17","207653","0.0-7.0-0.0-0.3","778","","j","","","","","","","","","","","","","key","j","16.666999999999888","720","446","f","false","img/T_ambi40.png","坏人","prac_image_first",""
"","","","","","html-keyboard-response","18","207956","0.0-7.0-0.0-1.3","null","<span style='color:red; font-size: 70px;'>错误! </span>","null","","","","","","","","","","","","","","","","","","","","","","","feedback_test"
"","","","","","psychophysics","19","210542","0.0-7.0-0.0-0.4","1430","","j","","","","","","","","","","","","","key","j","16.667000000000044","720","446","j","true","img/T_ambi40.png","好人","prac_image_first",""
"","","","","","html-keyboard-response","20","210846","0.0-7.0-0.0-1.4","null","<span style='color:GreenYellow; font-size: 70px;'>正确! </span>","null","","","","","","","","","","","","","","","","","","","","","","","feedback_test"
"","","","","","psychophysics","21","212768","0.0-7.0-0.0-0.5","766","","f","","","","","","","","","","","","","key","f","16.667000000000005","720","446","f","true","img/S_ambi40.png","好人","prac_image_first",""
"","","","","","html-keyboard-response","22","213073","0.0-7.0-0.0-1.5","null","<span style='color:GreenYellow; font-size: 70px;'>正确! </span>","null","","","","","","","","","","","","","","","","","","","","","","","feedback_test"
"","","","","","psychophysics","23","215531","0.0-7.0-0.0-0.6","1306","","j","","","","","","","","","","","","","key","j","16.666999999999994","720","446","j","true","img/T_ambi40.png","常人","prac_image_first",""
"","","","","","html-keyboard-response","24","215835","0.0-7.0-0.0-1.6","null","<span style='color:GreenYellow; font-size: 70px;'>正确! </span>","null","","","","","","","","","","","","","","","","","","","","","","","feedback_test"
"","","","","","psychophysics","25","218492","0.0-7.0-0.0-0.7","null","","null","","","","","","","","","","","","","key","null","16.66700000000009","720","446","f","false","img/C_ambi40.png","常人","prac_image_first",""
"","","","","","html-keyboard-response","26","218797","0.0-7.0-0.0-1.7","null","<span class='add_' style='color:yellow; font-size: 70px;'> 太慢! </span>","null","","","","","","","","","","","","","","","","","","","","","","","feedback_test"
"","","","","","psychophysics","27","221167","0.0-7.0-0.0-0.8","1215","","f","","","","","","","","","","","","","key","f","16.667000000000144","720","446","f","true","img/T_ambi40.png","坏人","prac_image_first",""
"","","","","","html-keyboard-response","28","221472","0.0-7.0-0.0-1.8","null","<span style='color:GreenYellow; font-size: 70px;'>正确! </span>","null","","","","","","","","","","","","","","","","","","","","","","","feedback_test"
"","","","","","psychophysics","29","223627","0.0-7.0-0.0-0.9","1002","","j","","","","","","","","","","","","","key","j","16.66700000000004","720","446","j","true","img/C_ambi40.png","坏人","prac_image_first",""
"","","","","","html-keyboard-response","30","223931","0.0-7.0-0.0-1.9","null","<span style='color:GreenYellow; font-size: 70px;'>正确! </span>","null","","","","","","","","","","","","","","","","","","","","","","","feedback_test"
"","","","","","psychophysics","31","225775","0.0-7.0-0.0-0.10","690","","f","","","","","","","","","","","","","key","f","16.819908256880957","720","446","f","true","img/S_ambi40.png","好人","prac_image_first",""
"","","","","","html-keyboard-response","32","226080","0.0-7.0-0.0-1.10","null","<span style='color:GreenYellow; font-size: 70px;'>正确! </span>","null","","","","","","","","","","","","","","","","","","","","","","","feedback_test"
"","","","","","psychophysics","33","228401","0.0-7.0-0.0-0.11","1164","","j","","","","","","","","","","","","","key","j","16.667000000000016","720","446","j","true","img/S_ambi40.png","坏人","prac_image_first",""
"","","","","","html-keyboard-response","34","228705","0.0-7.0-0.0-1.11","null","<span style='color:GreenYellow; font-size: 70px;'>正确! </span>","null","","","","","","","","","","","","","","","","","","","","","","","feedback_test"
"","","","","","psychophysics","35","230546","0.0-7.0-0.0-0.12","685","","j","","","","","","","","","","","","","key","j","16.67146788990828","720","446","j","true","img/C_ambi40.png","坏人","prac_image_first",""
"","","","","","html-keyboard-response","36","230850","0.0-7.0-0.0-1.12","null","<span style='color:GreenYellow; font-size: 70px;'>正确! </span>","null","","","","","","","","","","","","","","","","","","","","","","","feedback_test"
"","","","","","psychophysics","37","232791","0.0-7.0-0.0-0.13","784","","j","","","","","","","","","","","","","key","j","16.66700000000014","720","446","f","false","img/C_ambi40.png","常人","prac_image_first",""
"","","","","","html-keyboard-response","38","233097","0.0-7.0-0.0-1.13","null","<span style='color:red; font-size: 70px;'>错误! </span>","null","","","","","","","","","","","","","","","","","","","","","","","feedback_test"
"","","","","","psychophysics","39","235688","0.0-7.0-0.0-0.14","1439","","j","","","","","","","","","","","","","key","j","16.884869281045813","720","446","j","true","img/S_ambi40.png","常人","prac_image_first",""
"","","","","","html-keyboard-response","40","235992","0.0-7.0-0.0-1.14","null","<span style='color:GreenYellow; font-size: 70px;'>正确! </span>","null","","","","","","","","","","","","","","","","","","","","","","","feedback_test"
"","","","","","psychophysics","41","238648","0.0-7.0-0.0-0.15","null","","null","","","","","","","","","","","","","key","null","16.66699999999991","720","446","f","false","img/T_ambi40.png","坏人","prac_image_first",""
"","","","","","html-keyboard-response","42","238950","0.0-7.0-0.0-1.15","null","<span class='add_' style='color:yellow; font-size: 70px;'> 太慢! </span>","null","","","","","","","","","","","","","","","","","","","","","","","feedback_test"
"","","","","","psychophysics","43","240581","0.0-7.0-0.0-0.16","480","","j","","","","","","","","","","","","","key","j","16.672010309278626","720","446","j","true","img/T_ambi40.png","常人","prac_image_first",""
"","","","","","html-keyboard-response","44","240900","0.0-7.0-0.0-1.16","null","<span style='color:GreenYellow; font-size: 70px;'>正确! </span>","null","","","","","","","","","","","","","","","","","","","","","","","feedback_test"
"","","","","","psychophysics","45","242889","0.0-7.0-0.0-0.17","835","","j","","","","","","","","","","","","","key","j","16.666999999999934","720","446","j","true","img/C_ambi40.png","好人","prac_image_first",""
"","","","","","html-keyboard-response","46","243195","0.0-7.0-0.0-1.17","null","<span style='color:GreenYellow; font-size: 70px;'>正确! </span>","null","","","","","","","","","","","","","","","","","","","","","","","feedback_test"
"","","","","","psychophysics","47","245386","0.0-7.0-0.0-0.18","1039","","f","","","","","","","","","","","","","key","f","16.666999999999838","720","446","f","true","img/T_ambi40.png","坏人","prac_image_first",""
"","","","","","html-keyboard-response","48","245689","0.0-7.0-0.0-1.18","null","<span style='color:GreenYellow; font-size: 70px;'>正确! </span>","null","","","","","","","","","","","","","","","","","","","","","","","feedback_test"
"","","","","","psychophysics","49","247564","0.0-7.0-0.0-0.19","716","","f","","","","","","","","","","","","","key","f","16.66700000000024","720","446","f","true","img/S_ambi40.png","好人","prac_image_first",""
"","","","","","html-keyboard-response","50","247868","0.0-7.0-0.0-1.19","null","<span style='color:GreenYellow; font-size: 70px;'>正确! </span>","null","","","","","","","","","","","","","","","","","","","","","","","feedback_test"
"","","","","","psychophysics","51","249472","0.0-7.0-0.0-0.20","453","","j","","","","","","","","","","","","","key","j","16.66700000000007","720","446","f","false","img/C_ambi40.png","常人","prac_image_first",""
"","","","","","html-keyboard-response","52","249774","0.0-7.0-0.0-1.20","null","<span style='color:red; font-size: 70px;'>错误! </span>","null","","","","","","","","","","","","","","","","","","","","","","","feedback_test"
"","","","","","psychophysics","53","251971","0.0-7.0-0.0-0.21","1040","","j","","","","","","","","","","","","","key","j","16.666999999999938","720","446","j","true","img/T_ambi40.png","好人","prac_image_first",""
"","","","","","html-keyboard-response","54","252272","0.0-7.0-0.0-1.21","null","<span style='color:GreenYellow; font-size: 70px;'>正确! </span>","null","","","","","","","","","","","","","","","","","","","","","","","feedback_test"
"","","","","","psychophysics","55","254117","0.0-7.0-0.0-0.22","687","","f","","","","","","","","","","","","","key","f","16.666999999999838","720","446","f","true","img/S_ambi40.png","好人","prac_image_first",""
"","","","","","html-keyboard-response","56","254419","0.0-7.0-0.0-1.22","null","<span style='color:GreenYellow; font-size: 70px;'>正确! </span>","null","","","","","","","","","","","","","","","","","","","","","","","feedback_test"
"","","","","","psychophysics","57","256217","0.0-7.0-0.0-0.23","640","","j","","","","","","","","","","","","","key","j","16.667000000000204","720","446","j","true","img/S_ambi40.png","坏人","prac_image_first",""
"","","","","","html-keyboard-response","58","256522","0.0-7.0-0.0-1.23","null","<span style='color:GreenYellow; font-size: 70px;'>正确! </span>","null","","","","","","","","","","","","","","","","","","","","","","","feedback_test"
"","","","","","html-keyboard-response","59","260879","0.0-8.0","4353","<style>.context{color:white; font-size: 35px; line-height:40px}</style>                              <div><p class='context'>您正确回答了71% 的试次。</p><p class='context'>您的平均反应时为935毫秒。</p><p class='context'>恭喜您完成这一阶段的练习。按任意键进入<span style='color: yellow;'>先文字后图形条件</span>的练习。</p></div>"," ","","","","","","","","","","","","","","","","","","","","","","",""
"","","","","","psychophysics","60","263320","0.0-9.0-0.0-0.0","1279","","j","","","","","","","","","","","","","key","j","16.674179310344787","720","446","j","true","img/T_ambi40.png","常人","prac_word_first",""
"","","","","","html-keyboard-response","61","263625","0.0-9.0-0.0-1.0","null","<span style='color:GreenYellow; font-size: 70px;'>正确! </span>","null","","","","","","","","","","","","","","","","","","","","","","","feedback_test"
"","","","","","psychophysics","62","265891","0.0-9.0-0.0-0.1","1113","","j","","","","","","","","","","","","","key","j","16.66699999999988","720","446","f","false","img/T_ambi40.png","坏人","prac_word_first",""
"","","","","","html-keyboard-response","63","266196","0.0-9.0-0.0-1.1","null","<span style='color:red; font-size: 70px;'>错误! </span>","null","","","","","","","","","","","","","","","","","","","","","","","feedback_test"
"","","","","","psychophysics","64","268046","0.0-9.0-0.0-0.2","698","","j","","","","","","","","","","","","","key","j","16.666999999999813","720","446","j","true","img/C_ambi40.png","好人","prac_word_first",""
"","","","","","html-keyboard-response","65","268351","0.0-9.0-0.0-1.2","null","<span style='color:GreenYellow; font-size: 70px;'>正确! </span>","null","","","","","","","","","","","","","","","","","","","","","","","feedback_test"
"","","","","","psychophysics","66","270361","0.0-9.0-0.0-0.3","858","","j","","","","","","","","","","","","","key","j","16.666999999999693","720","446","j","true","img/S_ambi40.png","坏人","prac_word_first",""
"","","","","","html-keyboard-response","67","270662","0.0-9.0-0.0-1.3","null","<span style='color:GreenYellow; font-size: 70px;'>正确! </span>","null","","","","","","","","","","","","","","","","","","","","","","","feedback_test"
"","","","","","psychophysics","68","272982","0.0-9.0-0.0-0.4","1166","","f","","","","","","","","","","","","","key","f","16.66699999999992","720","446","f","true","img/T_ambi40.png","坏人","prac_word_first",""
"","","","","","html-keyboard-response","69","273284","0.0-9.0-0.0-1.4","null","<span style='color:GreenYellow; font-size: 70px;'>正确! </span>","null","","","","","","","","","","","","","","","","","","","","","","","feedback_test"
"","","","","","psychophysics","70","275051","0.0-9.0-0.0-0.5","613","","j","","","","","","","","","","","","","key","j","16.66700000000031","720","446","f","false","img/C_ambi40.png","常人","prac_word_first",""
"","","","","","html-keyboard-response","71","275352","0.0-9.0-0.0-1.5","null","<span style='color:red; font-size: 70px;'>错误! </span>","null","","","","","","","","","","","","","","","","","","","","","","","feedback_test"
"","","","","","psychophysics","72","277121","0.0-9.0-0.0-0.6","613","","f","","","","","","","","","","","","","key","f","16.82573333333324","720","446","f","true","img/S_ambi40.png","好人","prac_word_first",""
"","","","","","html-keyboard-response","73","277425","0.0-9.0-0.0-1.6","null","<span style='color:GreenYellow; font-size: 70px;'>正确! </span>","null","","","","","","","","","","","","","","","","","","","","","","","feedback_test"
"","","","","","psychophysics","74","279369","0.0-9.0-0.0-0.7","793","","j","","","","","","","","","","","","","key","j","16.811930434782383","720","446","j","true","img/C_ambi40.png","坏人","prac_word_first",""
"","","","","","html-keyboard-response","75","279674","0.0-9.0-0.0-1.7","null","<span style='color:GreenYellow; font-size: 70px;'>正确! </span>","null","","","","","","","","","","","","","","","","","","","","","","","feedback_test"
"","","","","","psychophysics","76","281555","0.0-9.0-0.0-0.8","730","","j","","","","","","","","","","","","","key","j","16.6754910714283","720","446","j","true","img/T_ambi40.png","好人","prac_word_first",""
"","","","","","html-keyboard-response","77","281861","0.0-9.0-0.0-1.8","null","<span style='color:GreenYellow; font-size: 70px;'>正确! </span>","null","","","","","","","","","","","","","","","","","","","","","","","feedback_test"
"","","","","","psychophysics","78","284096","0.0-9.0-0.0-0.9","1081","","f","","","","","","","","","","","","","key","f","16.667000000000076","720","446","f","true","img/C_ambi40.png","常人","prac_word_first",""
"","","","","","html-keyboard-response","79","284401","0.0-9.0-0.0-1.9","null","<span style='color:GreenYellow; font-size: 70px;'>正确! </span>","null","","","","","","","","","","","","","","","","","","","","","","","feedback_test"
"","","","","","psychophysics","80","286272","0.0-9.0-0.0-0.10","716","","j","","","","","","","","","","","","","key","j","16.666999999999575","720","446","j","true","img/S_ambi40.png","常人","prac_word_first",""
"","","","","","html-keyboard-response","81","286573","0.0-9.0-0.0-1.10","null","<span style='color:GreenYellow; font-size: 70px;'>正确! </span>","null","","","","","","","","","","","","","","","","","","","","","","","feedback_test"
"","","","","","psychophysics","82","288447","0.0-9.0-0.0-0.11","721","","f","","","","","","","","","","","","","key","f","16.6670000000001","720","446","f","true","img/S_ambi40.png","好人","prac_word_first",""
"","","","","","html-keyboard-response","83","288750","0.0-9.0-0.0-1.11","null","<span style='color:GreenYellow; font-size: 70px;'>正确! </span>","null","","","","","","","","","","","","","","","","","","","","","","","feedback_test"
"","","","","","psychophysics","84","290795","0.0-9.0-0.0-0.12","890","","j","","","","","","","","","","","","","key","j","16.66699999999996","720","446","j","true","img/T_ambi40.png","好人","prac_word_first",""
"","","","","","html-keyboard-response","85","291100","0.0-9.0-0.0-1.12","null","<span style='color:GreenYellow; font-size: 70px;'>正确! </span>","null","","","","","","","","","","","","","","","","","","","","","","","feedback_test"
"","","","","","psychophysics","86","293036","0.0-9.0-0.0-0.13","780","","j","","","","","","","","","","","","","key","j","16.671163793103286","720","446","j","true","img/C_ambi40.png","坏人","prac_word_first",""
"","","","","","html-keyboard-response","87","293339","0.0-9.0-0.0-1.13","null","<span style='color:GreenYellow; font-size: 70px;'>正确! </span>","null","","","","","","","","","","","","","","","","","","","","","","","feedback_test"
"","","","","","psychophysics","88","295255","0.0-9.0-0.0-0.14","760","","f","","","","","","","","","","","","","key","f","16.66700000000014","720","446","f","true","img/T_ambi40.png","坏人","prac_word_first",""
"","","","","","html-keyboard-response","89","295560","0.0-9.0-0.0-1.14","null","<span style='color:GreenYellow; font-size: 70px;'>正确! </span>","null","","","","","","","","","","","","","","","","","","","","","","","feedback_test"
"","","","","","psychophysics","90","297292","0.0-9.0-0.0-0.15","575","","j","","","","","","","","","","","","","key","j","16.997039603960406","720","446","f","false","img/C_ambi40.png","常人","prac_word_first",""
"","","","","","html-keyboard-response","91","297593","0.0-9.0-0.0-1.15","null","<span style='color:red; font-size: 70px;'>错误! </span>","null","","","","","","","","","","","","","","","","","","","","","","","feedback_test"
"","","","","","psychophysics","92","299736","0.0-9.0-0.0-0.16","989","","j","","","","","","","","","","","","","key","j","16.66700000000025","720","446","j","true","img/S_ambi40.png","坏人","prac_word_first",""
"","","","","","html-keyboard-response","93","300039","0.0-9.0-0.0-1.16","null","<span style='color:GreenYellow; font-size: 70px;'>正确! </span>","null","","","","","","","","","","","","","","","","","","","","","","","feedback_test"
"","","","","","psychophysics","94","301785","0.0-9.0-0.0-0.17","590","","f","","","","","","","","","","","","","key","f","16.6669999999996","720","446","f","true","img/T_ambi40.png","坏人","prac_word_first",""
"","","","","","html-keyboard-response","95","302086","0.0-9.0-0.0-1.17","null","<span style='color:GreenYellow; font-size: 70px;'>正确! </span>","null","","","","","","","","","","","","","","","","","","","","","","","feedback_test"
"","","","","","psychophysics","96","303662","0.0-9.0-0.0-0.18","423","","j","","","","","","","","","","","","","key","j","16.667000000000186","720","446","f","false","img/C_ambi40.png","常人","prac_word_first",""
"","","","","","html-keyboard-response","97","303967","0.0-9.0-0.0-1.18","null","<span style='color:red; font-size: 70px;'>错误! </span>","null","","","","","","","","","","","","","","","","","","","","","","","feedback_test"
"","","","","","psychophysics","98","305748","0.0-9.0-0.0-0.19","631","","f","","","","","","","","","","","","","key","f","16.66700000000031","720","446","j","false","img/T_ambi40.png","常人","prac_word_first",""
"","","","","","html-keyboard-response","99","306055","0.0-9.0-0.0-1.19","null","<span style='color:red; font-size: 70px;'>错误! </span>","null","","","","","","","","","","","","","","","","","","","","","","","feedback_test"
"","","","","","psychophysics","100","307855","0.0-9.0-0.0-0.20","640","","j","","","","","","","","","","","","","key","j","16.82276635514039","720","446","j","true","img/C_ambi40.png","好人","prac_word_first",""
"","","","","","html-keyboard-response","101","308156","0.0-9.0-0.0-1.20","null","<span style='color:GreenYellow; font-size: 70px;'>正确! </span>","null","","","","","","","","","","","","","","","","","","","","","","","feedback_test"
"","","","","","psychophysics","102","310110","0.0-9.0-0.0-0.21","801","","j","","","","","","","","","","","","","key","j","16.666999999999913","720","446","j","true","img/S_ambi40.png","常人","prac_word_first",""
"","","","","","html-keyboard-response","103","310416","0.0-9.0-0.0-1.21","null","<span style='color:GreenYellow; font-size: 70px;'>正确! </span>","null","","","","","","","","","","","","","","","","","","","","","","","feedback_test"
"","","","","","psychophysics","104","312218","0.0-9.0-0.0-0.22","650","","f","","","","","","","","","","","","","key","f","16.67587850467306","720","446","f","true","img/S_ambi40.png","好人","prac_word_first",""
"","","","","","html-keyboard-response","105","312522","0.0-9.0-0.0-1.22","null","<span style='color:GreenYellow; font-size: 70px;'>正确! </span>","null","","","","","","","","","","","","","","","","","","","","","","","feedback_test"
"","","","","","psychophysics","106","314275","0.0-9.0-0.0-0.23","600","","f","","","","","","","","","","","","","key","f","16.66700000000016","720","446","f","true","img/S_ambi40.png","好人","prac_word_first",""
"","","","","","html-keyboard-response","107","314578","0.0-9.0-0.0-1.23","null","<span style='color:GreenYellow; font-size: 70px;'>正确! </span>","null","","","","","","","","","","","","","","","","","","","","","","","feedback_test"
"","","","","","html-keyboard-response","108","317565","0.0-10.0","2979","<style>.context{color:white; font-size: 35px; line-height:40px}</style>                              <div><p class='context'>您正确回答了79% 的试次。</p><p class='context'>您的平均反应时为808毫秒。</p><p class='context'>恭喜您完成练习。按任意键进入<span style='color: yellow;'>图形和文字同时呈现条件</span>的练习。</p></div>"," ","","","","","","","","","","","","","","","","","","","","","","",""
"","","","","","psychophysics","109","319860","0.0-11.0-0.0-0.0","1283","","f","","","","","","","","","","","","","key","f","16.66700000000011","720","446","f","true","img/T_ambi40.png","坏人","prac_simultaneous",""
"","","","","","html-keyboard-response","110","320168","0.0-11.0-0.0-1.0","null","<span style='color:GreenYellow; font-size: 70px;'>正确! </span>","null","","","","","","","","","","","","","","","","","","","","","","","feedback_test"
"","","","","","psychophysics","111","321808","0.0-11.0-0.0-0.1","638","","f","","","","","","","","","","","","","key","f","16.666999999999796","720","446","f","true","img/S_ambi40.png","好人","prac_simultaneous",""
"","","","","","html-keyboard-response","112","322115","0.0-11.0-0.0-1.1","null","<span style='color:GreenYellow; font-size: 70px;'>正确! </span>","null","","","","","","","","","","","","","","","","","","","","","","","feedback_test"
"","","","","","psychophysics","113","323992","0.0-11.0-0.0-0.2","873","","j","","","","","","","","","","","","","key","j","16.66700000000024","720","446","j","true","img/C_ambi40.png","坏人","prac_simultaneous",""
"","","","","","html-keyboard-response","114","324297","0.0-11.0-0.0-1.2","null","<span style='color:GreenYellow; font-size: 70px;'>正确! </span>","null","","","","","","","","","","","","","","","","","","","","","","","feedback_test"
"","","","","","psychophysics","115","325830","0.0-11.0-0.0-0.3","530","","f","","","","","","","","","","","","","key","f","16.66700000000048","720","446","f","true","img/S_ambi40.png","好人","prac_simultaneous",""
"","","","","","html-keyboard-response","116","326137","0.0-11.0-0.0-1.3","null","<span style='color:GreenYellow; font-size: 70px;'>正确! </span>","null","","","","","","","","","","","","","","","","","","","","","","","feedback_test"
"","","","","","psychophysics","117","327762","0.0-11.0-0.0-0.4","623","","j","","","","","","","","","","","","","key","j","16.666999999999632","720","446","f","false","img/C_ambi40.png","常人","prac_simultaneous",""
"","","","","","html-keyboard-response","118","328069","0.0-11.0-0.0-1.4","null","<span style='color:red; font-size: 70px;'>错误! </span>","null","","","","","","","","","","","","","","","","","","","","","","","feedback_test"
"","","","","","psychophysics","119","329745","0.0-11.0-0.0-0.5","674","","j","","","","","","","","","","","","","key","j","16.667000000000115","720","446","j","true","img/T_ambi40.png","好人","prac_simultaneous",""
"","","","","","html-keyboard-response","120","330049","0.0-11.0-0.0-1.5","null","<span style='color:GreenYellow; font-size: 70px;'>正确! </span>","null","","","","","","","","","","","","","","","","","","","","","","","feedback_test"
"","","","","","psychophysics","121","331744","0.0-11.0-0.0-0.6","689","","j","","","","","","","","","","","","","key","j","16.67640594059387","720","446","f","false","img/T_ambi40.png","坏人","prac_simultaneous",""
"","","","","","html-keyboard-response","122","332049","0.0-11.0-0.0-1.6","null","<span style='color:red; font-size: 70px;'>错误! </span>","null","","","","","","","","","","","","","","","","","","","","","","","feedback_test"
"","","","","","psychophysics","123","333920","0.0-11.0-0.0-0.7","866","","j","","","","","","","","","","","","","key","j","16.66700000000024","720","446","f","false","img/C_ambi40.png","常人","prac_simultaneous",""
"","","","","","html-keyboard-response","124","334224","0.0-11.0-0.0-1.7","null","<span style='color:red; font-size: 70px;'>错误! </span>","null","","","","","","","","","","","","","","","","","","","","","","","feedback_test"
"","","","","","psychophysics","125","336195","0.0-11.0-0.0-0.8","966","","j","","","","","","","","","","","","","key","j","16.667000000000048","720","446","j","true","img/T_ambi40.png","常人","prac_simultaneous",""
"","","","","","html-keyboard-response","126","336502","0.0-11.0-0.0-1.8","null","<span style='color:GreenYellow; font-size: 70px;'>正确! </span>","null","","","","","","","","","","","","","","","","","","","","","","","feedback_test"
"","","","","","psychophysics","127","338189","0.0-11.0-0.0-0.9","682","","j","","","","","","","","","","","","","key","j","16.667000000000115","720","446","j","true","img/S_ambi40.png","常人","prac_simultaneous",""
"","","","","","html-keyboard-response","128","338493","0.0-11.0-0.0-1.9","null","<span style='color:GreenYellow; font-size: 70px;'>正确! </span>","null","","","","","","","","","","","","","","","","","","","","","","","feedback_test"
"","","","","","psychophysics","129","340285","0.0-11.0-0.0-0.10","786","","j","","","","","","","","","","","","","key","j","16.667000000000055","720","446","j","true","img/S_ambi40.png","坏人","prac_simultaneous",""
"","","","","","html-keyboard-response","130","340586","0.0-11.0-0.0-1.10","null","<span style='color:GreenYellow; font-size: 70px;'>正确! </span>","null","","","","","","","","","","","","","","","","","","","","","","","feedback_test"
"","","","","","psychophysics","131","342487","0.0-11.0-0.0-0.11","900","","j","","","","","","","","","","","","","key","j","16.66700000000024","720","446","j","true","img/C_ambi40.png","好人","prac_simultaneous",""
"","","","","","html-keyboard-response","132","342791","0.0-11.0-0.0-1.11","null","<span style='color:GreenYellow; font-size: 70px;'>正确! </span>","null","","","","","","","","","","","","","","","","","","","","","","","feedback_test"
"","","","","","psychophysics","133","344544","0.0-11.0-0.0-0.12","749","","f","","","","","","","","","","","","","key","f","16.66700000000001","720","446","f","true","img/S_ambi40.png","好人","prac_simultaneous",""
"","","","","","html-keyboard-response","134","344845","0.0-11.0-0.0-1.12","null","<span style='color:GreenYellow; font-size: 70px;'>正确! </span>","null","","","","","","","","","","","","","","","","","","","","","","","feedback_test"
"","","","","","psychophysics","135","346623","0.0-11.0-0.0-0.13","771","","j","","","","","","","","","","","","","key","j","16.66699999999991","720","446","j","true","img/C_ambi40.png","坏人","prac_simultaneous",""
"","","","","","html-keyboard-response","136","346928","0.0-11.0-0.0-1.13","null","<span style='color:GreenYellow; font-size: 70px;'>正确! </span>","null","","","","","","","","","","","","","","","","","","","","","","","feedback_test"
"","","","","","psychophysics","137","348607","0.0-11.0-0.0-0.14","676","","f","","","","","","","","","","","","","key","f","16.667000000000115","720","446","f","true","img/S_ambi40.png","好人","prac_simultaneous",""
"","","","","","html-keyboard-response","138","348911","0.0-11.0-0.0-1.14","null","<span style='color:GreenYellow; font-size: 70px;'>正确! </span>","null","","","","","","","","","","","","","","","","","","","","","","","feedback_test"
"","","","","","psychophysics","139","350496","0.0-11.0-0.0-0.15","581","","j","","","","","","","","","","","","","key","j","16.666999999999902","720","446","j","true","img/T_ambi40.png","常人","prac_simultaneous",""
"","","","","","html-keyboard-response","140","350801","0.0-11.0-0.0-1.15","null","<span style='color:GreenYellow; font-size: 70px;'>正确! </span>","null","","","","","","","","","","","","","","","","","","","","","","","feedback_test"
"","","","","","psychophysics","141","352754","0.0-11.0-0.0-0.16","951","","j","","","","","","","","","","","","","key","j","16.675181034482726","720","446","j","true","img/T_ambi40.png","好人","prac_simultaneous",""
"","","","","","html-keyboard-response","142","353060","0.0-11.0-0.0-1.16","null","<span style='color:GreenYellow; font-size: 70px;'>正确! </span>","null","","","","","","","","","","","","","","","","","","","","","","","feedback_test"
"","","","","","psychophysics","143","355305","0.0-11.0-0.0-0.17","1241","","f","","","","","","","","","","","","","key","f","16.66699999999996","720","446","f","true","img/T_ambi40.png","坏人","prac_simultaneous",""
"","","","","","html-keyboard-response","144","355609","0.0-11.0-0.0-1.17","null","<span style='color:GreenYellow; font-size: 70px;'>正确! </span>","null","","","","","","","","","","","","","","","","","","","","","","","feedback_test"
"","","","","","psychophysics","145","357210","0.0-11.0-0.0-0.18","597","","j","","","","","","","","","","","","","key","j","16.666999999999902","720","446","j","true","img/S_ambi40.png","常人","prac_simultaneous",""
"","","","","","html-keyboard-response","146","357512","0.0-11.0-0.0-1.18","null","<span style='color:GreenYellow; font-size: 70px;'>正确! </span>","null","","","","","","","","","","","","","","","","","","","","","","","feedback_test"
"","","","","","psychophysics","147","359492","0.0-11.0-0.0-0.19","975","","j","","","","","","","","","","","","","key","j","16.80945299145304","720","446","j","true","img/S_ambi40.png","坏人","prac_simultaneous",""
"","","","","","html-keyboard-response","148","359797","0.0-11.0-0.0-1.19","null","<span style='color:GreenYellow; font-size: 70px;'>正确! </span>","null","","","","","","","","","","","","","","","","","","","","","","","feedback_test"
"","","","","","psychophysics","149","361602","0.0-11.0-0.0-0.20","802","","j","","","","","","","","","","","","","key","j","16.666999999999664","720","446","f","false","img/C_ambi40.png","常人","prac_simultaneous",""
"","","","","","html-keyboard-response","150","361904","0.0-11.0-0.0-1.20","null","<span style='color:red; font-size: 70px;'>错误! </span>","null","","","","","","","","","","","","","","","","","","","","","","","feedback_test"
"","","","","","psychophysics","151","363500","0.0-11.0-0.0-0.21","594","","f","","","","","","","","","","","","","key","f","16.666999999999902","720","446","j","false","img/C_ambi40.png","好人","prac_simultaneous",""
"","","","","","html-keyboard-response","152","363806","0.0-11.0-0.0-1.21","null","<span style='color:red; font-size: 70px;'>错误! </span>","null","","","","","","","","","","","","","","","","","","","","","","","feedback_test"
"","","","","","psychophysics","153","365520","0.0-11.0-0.0-0.22","711","","j","","","","","","","","","","","","","key","j","16.666999999999696","720","446","f","false","img/C_ambi40.png","常人","prac_simultaneous",""
"","","","","","html-keyboard-response","154","365823","0.0-11.0-0.0-1.22","null","<span style='color:red; font-size: 70px;'>错误! </span>","null","","","","","","","","","","","","","","","","","","","","","","","feedback_test"
"","","","","","psychophysics","155","367850","0.0-11.0-0.0-0.23","1022","","f","","","","","","","","","","","","","key","f","16.807058823529236","720","446","f","true","img/T_ambi40.png","坏人","prac_simultaneous",""
"","","","","","html-keyboard-response","156","368154","0.0-11.0-0.0-1.23","null","<span style='color:GreenYellow; font-size: 70px;'>正确! </span>","null","","","","","","","","","","","","","","","","","","","","","","","feedback_test"
"","","","","","html-keyboard-response","157","374747","0.0-12.0","6586","<style>.context{color:white; font-size: 35px; line-height:40px}</style>                              <div><p class='context'>您正确回答了75% 的试次。</p><p class='context'>您的平均反应时为828毫秒。</p><p class='context'>恭喜您完成练习。按任意键进入正式实验。</p><p class='footer' style='font-size: 35px; line-height:40px;'>请在进入正式实验实验之前将您的<span style='color: lightgreen;'>食指</span>放在电脑键盘的相应键位上进行按键。</p>"," ","","","","","","","","","","","","","","","","","","","","","","",""
"","","","","","html-keyboard-response","158","380822","0.0-13.0-2.0-0.0","6068","
      <p>请您将手指放在按键上，准备进入呈现顺序为<span style='color: yellow;'>图形和文字同时呈现条件</span>的正式匹配任务</p>
      <p> <div style = ""color: green""><按任意键进入下一阶段的匹配任务></div></p>
      "," ","","","","","","","","","","","","","","","","","","","","","","",""
"","","","","","psychophysics","159","383277","0.0-13.0-2.0-1.0-0.0-0.0","1454","","j","","","","","","","","","","","","","key","j","16.667000000000176","720","446","f","false","img/S_ambi40.png","好人","simultaneous",""
"","","","","","html-keyboard-response","160","383587","0.0-13.0-2.0-1.0-0.0-1.0","null","<span style='color:red; font-size: 70px;'>错误! </span>","null","","","","","","","","","","","","","","","","","","","","","","","feedback_test"
"","","","","","psychophysics","161","385994","0.0-13.0-2.0-1.0-0.0-0.1","1406","","f","","","","","","","","","","","","","key","f","16.66699999999996","720","446","f","true","img/C_ambi40.png","常人","simultaneous",""
"","","","","","html-keyboard-response","162","386297","0.0-13.0-2.0-1.0-0.0-1.1","null","<span style='color:GreenYellow; font-size: 70px;'>正确! </span>","null","","","","","","","","","","","","","","","","","","","","","","","feedback_test"
"","","","","","psychophysics","163","388213","0.0-13.0-2.0-1.0-0.0-0.2","910","","j","","","","","","","","","","","","","key","j","16.666999999999636","720","446","j","true","img/C_ambi40.png","好人","simultaneous",""
"","","","","","html-keyboard-response","164","388519","0.0-13.0-2.0-1.0-0.0-1.2","null","<span style='color:GreenYellow; font-size: 70px;'>正确! </span>","null","","","","","","","","","","","","","","","","","","","","","","","feedback_test"
"","","","","","psychophysics","165","390593","0.0-13.0-2.0-1.0-0.0-0.3","1068","","j","","","","","","","","","","","","","key","j","17.076844262295083","720","446","j","true","img/S_ambi40.png","常人","simultaneous",""
"","","","","","html-keyboard-response","166","390897","0.0-13.0-2.0-1.0-0.0-1.3","null","<span style='color:GreenYellow; font-size: 70px;'>正确! </span>","null","","","","","","","","","","","","","","","","","","","","","","","feedback_test"
"","","","","","psychophysics","167","392786","0.0-13.0-2.0-1.0-0.0-0.4","885","","f","","","","","","","","","","","","","key","f","16.818518181818284","720","446","f","true","img/T_ambi40.png","坏人","simultaneous",""
"","","","","","html-keyboard-response","168","393088","0.0-13.0-2.0-1.0-0.0-1.4","null","<span style='color:GreenYellow; font-size: 70px;'>正确! </span>","null","","","","","","","","","","","","","","","","","","","","","","","feedback_test"
"","","","","","psychophysics","169","394974","0.0-13.0-2.0-1.0-0.0-0.5","883","","j","","","","","","","","","","","","","key","j","16.675558558558762","720","446","j","true","img/S_ambi40.png","坏人","simultaneous",""
"","","","","","html-keyboard-response","170","395276","0.0-13.0-2.0-1.0-0.0-1.5","null","<span style='color:GreenYellow; font-size: 70px;'>正确! </span>","null","","","","","","","","","","","","","","","","","","","","","","","feedback_test"
"","","","","","psychophysics","171","396915","0.0-13.0-2.0-1.0-0.0-0.6","638","","j","","","","","","","","","","","","","key","j","16.66700000000023","720","446","f","false","img/C_ambi40.png","常人","simultaneous",""
"","","","","","html-keyboard-response","172","397220","0.0-13.0-2.0-1.0-0.0-1.6","null","<span style='color:red; font-size: 70px;'>错误! </span>","null","","","","","","","","","","","","","","","","","","","","","","","feedback_test"
"","","","","","psychophysics","173","399667","0.0-13.0-2.0-1.0-0.0-0.7","1439","","j","","","","","","","","","","","","","key","j","16.900104895105073","720","446","j","true","img/C_ambi40.png","坏人","simultaneous",""
"","","","","","html-keyboard-response","174","399970","0.0-13.0-2.0-1.0-0.0-1.7","null","<span style='color:GreenYellow; font-size: 70px;'>正确! </span>","null","","","","","","","","","","","","","","","","","","","","","","","feedback_test"
"","","","","","psychophysics","175","401738","0.0-13.0-2.0-1.0-0.0-0.8","754","","j","","","","","","","","","","","","","key","j","16.66700000000016","720","446","j","true","img/T_ambi40.png","好人","simultaneous",""
"","","","","","html-keyboard-response","176","402045","0.0-13.0-2.0-1.0-0.0-1.8","null","<span style='color:GreenYellow; font-size: 70px;'>正确! </span>","null","","","","","","","","","","","","","","","","","","","","","","","feedback_test"
"","","","","","psychophysics","177","403705","0.0-13.0-2.0-1.0-0.0-0.9","649","","j","","","","","","","","","","","","","key","j","16.66699999999996","720","446","j","true","img/T_ambi40.png","常人","simultaneous",""
"","","","","","html-keyboard-response","178","404010","0.0-13.0-2.0-1.0-0.0-1.9","null","<span style='color:GreenYellow; font-size: 70px;'>正确! </span>","null","","","","","","","","","","","","","","","","","","","","","","","feedback_test"
"","","","","","psychophysics","179","406124","0.0-13.0-2.0-1.0-0.0-0.10","1112","","j","","","","","","","","","","","","","key","j","16.667","720","446","f","false","img/T_ambi40.png","坏人","simultaneous",""
"","","","","","html-keyboard-response","180","406430","0.0-13.0-2.0-1.0-0.0-1.10","null","<span style='color:red; font-size: 70px;'>错误! </span>","null","","","","","","","","","","","","","","","","","","","","","","","feedback_test"
"","","","","","psychophysics","181","408288","0.0-13.0-2.0-1.0-0.0-0.11","853","","j","","","","","","","","","","","","","key","j","16.6670000000001","720","446","f","false","img/S_ambi40.png","好人","simultaneous",""
"","","","","","html-keyboard-response","182","408594","0.0-13.0-2.0-1.0-0.0-1.11","null","<span style='color:red; font-size: 70px;'>错误! </span>","null","","","","","","","","","","","","","","","","","","","","","","","feedback_test"
"","","","","","psychophysics","183","410314","0.0-13.0-2.0-1.0-0.0-0.12","718","","j","","","","","","","","","","","","","key","j","17.16701000000001","720","446","f","false","img/C_ambi40.png","常人","simultaneous",""
"","","","","","html-keyboard-response","184","410619","0.0-13.0-2.0-1.0-0.0-1.12","null","<span style='color:red; font-size: 70px;'>错误! </span>","null","","","","","","","","","","","","","","","","","","","","","","","feedback_test"
"","","","","","psychophysics","185","412935","0.0-13.0-2.0-1.0-0.0-0.13","1311","","j","","","","","","","","","","","","","key","j","16.66700000000011","720","446","j","true","img/T_ambi40.png","好人","simultaneous",""
"","","","","","html-keyboard-response","186","413239","0.0-13.0-2.0-1.0-0.0-1.13","null","<span style='color:GreenYellow; font-size: 70px;'>正确! </span>","null","","","","","","","","","","","","","","","","","","","","","","","feedback_test"
"","","","","","psychophysics","187","415197","0.0-13.0-2.0-1.0-0.0-0.14","957","","f","","","","","","","","","","","","","key","f","16.67518965517229","720","446","f","true","img/T_ambi40.png","坏人","simultaneous",""
"","","","","","html-keyboard-response","188","415503","0.0-13.0-2.0-1.0-0.0-1.14","null","<span style='color:GreenYellow; font-size: 70px;'>正确! </span>","null","","","","","","","","","","","","","","","","","","","","","","","feedback_test"
"","","","","","psychophysics","189","417304","0.0-13.0-2.0-1.0-0.0-0.15","790","","j","","","","","","","","","","","","","key","j","16.666999999999756","720","446","j","true","img/S_ambi40.png","坏人","simultaneous",""
"","","","","","html-keyboard-response","190","417608","0.0-13.0-2.0-1.0-0.0-1.15","null","<span style='color:GreenYellow; font-size: 70px;'>正确! </span>","null","","","","","","","","","","","","","","","","","","","","","","","feedback_test"
"","","","","","psychophysics","191","419834","0.0-13.0-2.0-1.0-0.0-0.16","1220","","j","","","","","","","","","","","","","key","j","16.66699999999996","720","446","j","true","img/T_ambi40.png","常人","simultaneous",""
"","","","","","html-keyboard-response","192","420139","0.0-13.0-2.0-1.0-0.0-1.16","null","<span style='color:GreenYellow; font-size: 70px;'>正确! </span>","null","","","","","","","","","","","","","","","","","","","","","","","feedback_test"
"","","","","","psychophysics","193","421971","0.0-13.0-2.0-1.0-0.0-0.17","830","","f","","","","","","","","","","","","","key","f","16.821324074073885","720","446","f","true","img/T_ambi40.png","坏人","simultaneous",""
"","","","","","html-keyboard-response","194","422276","0.0-13.0-2.0-1.0-0.0-1.17","null","<span style='color:GreenYellow; font-size: 70px;'>正确! </span>","null","","","","","","","","","","","","","","","","","","","","","","","feedback_test"
"","","","","","psychophysics","195","424213","0.0-13.0-2.0-1.0-0.0-0.18","915","","f","","","","","","","","","","","","","key","f","16.66700000000014","720","446","f","true","img/S_ambi40.png","好人","simultaneous",""
"","","","","","html-keyboard-response","196","424518","0.0-13.0-2.0-1.0-0.0-1.18","null","<span style='color:GreenYellow; font-size: 70px;'>正确! </span>","null","","","","","","","","","","","","","","","","","","","","","","","feedback_test"
"","","","","","psychophysics","197","426155","0.0-13.0-2.0-1.0-0.0-0.19","632","","j","","","","","","","","","","","","","key","j","16.838824742268436","720","446","f","false","img/C_ambi40.png","常人","simultaneous",""
"","","","","","html-keyboard-response","198","426460","0.0-13.0-2.0-1.0-0.0-1.19","null","<span style='color:red; font-size: 70px;'>错误! </span>","null","","","","","","","","","","","","","","","","","","","","","","","feedback_test"
"","","","","","psychophysics","199","428219","0.0-13.0-2.0-1.0-0.0-0.20","752","","j","","","","","","","","","","","","","key","j","16.666999999999756","720","446","j","true","img/C_ambi40.png","坏人","simultaneous",""
"","","","","","html-keyboard-response","200","428521","0.0-13.0-2.0-1.0-0.0-1.20","null","<span style='color:GreenYellow; font-size: 70px;'>正确! </span>","null","","","","","","","","","","","","","","","","","","","","","","","feedback_test"
"","","","","","psychophysics","201","430102","0.0-13.0-2.0-1.0-0.0-0.21","575","","f","","","","","","","","","","","","","key","f","16.66699999999973","720","446","f","true","img/S_ambi40.png","好人","simultaneous",""
"","","","","","html-keyboard-response","202","430422","0.0-13.0-2.0-1.0-0.0-1.21","null","<span style='color:GreenYellow; font-size: 70px;'>正确! </span>","null","","","","","","","","","","","","","","","","","","","","","","","feedback_test"
"","","","","","psychophysics","203","432118","0.0-13.0-2.0-1.0-0.0-0.22","695","","j","","","","","","","","","","","","","key","j","16.666999999999696","720","446","j","true","img/S_ambi40.png","常人","simultaneous",""
"","","","","","html-keyboard-response","204","432421","0.0-13.0-2.0-1.0-0.0-1.22","null","<span style='color:GreenYellow; font-size: 70px;'>正确! </span>","null","","","","","","","","","","","","","","","","","","","","","","","feedback_test"
"","","","","","psychophysics","205","433864","0.0-13.0-2.0-1.0-0.0-0.23","430","","j","","","","","","","","","","","","","key","j","16.666999999999774","720","446","j","true","img/C_ambi40.png","好人","simultaneous",""
"","","","","","html-keyboard-response","206","434173","0.0-13.0-2.0-1.0-0.0-1.23","null","<span style='color:GreenYellow; font-size: 70px;'>正确! </span>","null","","","","","","","","","","","","","","","","","","","","","","","feedback_test"
"","","","","","psychophysics","207","435996","0.0-13.0-2.0-1.0-0.0-0.24","804","","f","","","","","","","","","","","","","key","f","16.67578703703691","720","446","f","true","img/T_ambi40.png","坏人","simultaneous",""
"","","","","","html-keyboard-response","208","436298","0.0-13.0-2.0-1.0-0.0-1.24","null","<span style='color:GreenYellow; font-size: 70px;'>正确! </span>","null","","","","","","","","","","","","","","","","","","","","","","","feedback_test"
"","","","","","psychophysics","209","438046","0.0-13.0-2.0-1.0-0.0-0.25","746","","f","","","","","","","","","","","","","key","f","16.666999999999756","720","446","f","true","img/S_ambi40.png","好人","simultaneous",""
"","","","","","html-keyboard-response","210","438355","0.0-13.0-2.0-1.0-0.0-1.25","null","<span style='color:GreenYellow; font-size: 70px;'>正确! </span>","null","","","","","","","","","","","","","","","","","","","","","","","feedback_test"
"","","","","","psychophysics","211","440008","0.0-13.0-2.0-1.0-0.0-0.26","648","","j","","","","","","","","","","","","","key","j","16.666999999999796","720","446","f","false","img/C_ambi40.png","常人","simultaneous",""
"","","","","","html-keyboard-response","212","440313","0.0-13.0-2.0-1.0-0.0-1.26","null","<span style='color:red; font-size: 70px;'>错误! </span>","null","","","","","","","","","","","","","","","","","","","","","","","feedback_test"
"","","","","","psychophysics","213","442048","0.0-13.0-2.0-1.0-0.0-0.27","730","","j","","","","","","","","","","","","","key","j","16.66700000000016","720","446","f","false","img/T_ambi40.png","坏人","simultaneous",""
"","","","","","html-keyboard-response","214","442352","0.0-13.0-2.0-1.0-0.0-1.27","null","<span style='color:red; font-size: 70px;'>错误! </span>","null","","","","","","","","","","","","","","","","","","","","","","","feedback_test"
"","","","","","psychophysics","215","443849","0.0-13.0-2.0-1.0-0.0-0.28","491","","f","","","","","","","","","","","","","key","f","16.667000000000137","720","446","j","false","img/C_ambi40.png","好人","simultaneous",""
"","","","","","html-keyboard-response","216","444155","0.0-13.0-2.0-1.0-0.0-1.28","null","<span style='color:red; font-size: 70px;'>错误! </span>","null","","","","","","","","","","","","","","","","","","","","","","","feedback_test"
"","","","","","psychophysics","217","446666","0.0-13.0-2.0-1.0-0.0-0.29","null","","null","","","","","","","","","","","","","key","null","16.778113333333362","720","446","j","false","img/S_ambi40.png","常人","simultaneous",""
"","","","","","html-keyboard-response","218","446969","0.0-13.0-2.0-1.0-0.0-1.29","null","<span class='add_' style='color:yellow; font-size: 70px;'> 太慢! </span>","null","","","","","","","","","","","","","","","","","","","","","","","feedback_test"
"","","","","","psychophysics","219","448714","0.0-13.0-2.0-1.0-0.0-0.30","741","","f","","","","","","","","","","","","","key","f","16.990631067960916","720","446","j","false","img/S_ambi40.png","坏人","simultaneous",""
"","","","","","html-keyboard-response","220","449020","0.0-13.0-2.0-1.0-0.0-1.30","null","<span style='color:red; font-size: 70px;'>错误! </span>","null","","","","","","","","","","","","","","","","","","","","","","","feedback_test"
"","","","","","psychophysics","221","451125","0.0-13.0-2.0-1.0-0.0-0.31","1103","","j","","","","","","","","","","","","","key","j","16.802504065040523","720","446","j","true","img/C_ambi40.png","坏人","simultaneous",""
"","","","","","html-keyboard-response","222","451427","0.0-13.0-2.0-1.0-0.0-1.31","null","<span style='color:GreenYellow; font-size: 70px;'>正确! </span>","null","","","","","","","","","","","","","","","","","","","","","","","feedback_test"
"","","","","","psychophysics","223","453034","0.0-13.0-2.0-1.0-0.0-0.32","604","","j","","","","","","","","","","","","","key","j","16.66700000000007","720","446","j","true","img/T_ambi40.png","常人","simultaneous",""
"","","","","","html-keyboard-response","224","453339","0.0-13.0-2.0-1.0-0.0-1.32","null","<span style='color:GreenYellow; font-size: 70px;'>正确! </span>","null","","","","","","","","","","","","","","","","","","","","","","","feedback_test"
"","","","","","psychophysics","225","454879","0.0-13.0-2.0-1.0-0.0-0.33","536","","j","","","","","","","","","","","","","key","j","16.67743956044017","720","446","f","false","img/S_ambi40.png","好人","simultaneous",""
"","","","","","html-keyboard-response","226","455184","0.0-13.0-2.0-1.0-0.0-1.33","null","<span style='color:red; font-size: 70px;'>错误! </span>","null","","","","","","","","","","","","","","","","","","","","","","","feedback_test"
"","","","","","psychophysics","227","456545","0.0-13.0-2.0-1.0-0.0-0.34","352","","f","","","","","","","","","","","","","key","f","18.243608108108134","720","446","j","false","img/T_ambi40.png","好人","simultaneous",""
"","","","","","html-keyboard-response","228","456848","0.0-13.0-2.0-1.0-0.0-1.34","null","<span style='color:red; font-size: 70px;'>错误! </span>","null","","","","","","","","","","","","","","","","","","","","","","","feedback_test"
"","","","","","psychophysics","229","458556","0.0-13.0-2.0-1.0-0.0-0.35","702","","j","","","","","","","","","","","","","key","j","17.000339999999852","720","446","f","false","img/C_ambi40.png","常人","simultaneous",""
"","","","","","html-keyboard-response","230","458860","0.0-13.0-2.0-1.0-0.0-1.35","null","<span style='color:red; font-size: 70px;'>错误! </span>","null","","","","","","","","","","","","","","","","","","","","","","","feedback_test"
"","","","","","psychophysics","231","460475","0.0-13.0-2.0-1.0-0.0-0.36","607","","j","","","","","","","","","","","","","key","j","16.66700000000007","720","446","f","false","img/C_ambi40.png","常人","simultaneous",""
"","","","","","html-keyboard-response","232","460776","0.0-13.0-2.0-1.0-0.0-1.36","null","<span style='color:red; font-size: 70px;'>错误! </span>","null","","","","","","","","","","","","","","","","","","","","","","","feedback_test"
"","","","","","psychophysics","233","462270","0.0-13.0-2.0-1.0-0.0-0.37","486","","j","","","","","","","","","","","","","key","j","16.667000000000137","720","446","f","false","img/C_ambi40.png","常人","simultaneous",""
"","","","","","html-keyboard-response","234","462575","0.0-13.0-2.0-1.0-0.0-1.37","null","<span style='color:red; font-size: 70px;'>错误! </span>","null","","","","","","","","","","","","","","","","","","","","","","","feedback_test"
"","","","","","psychophysics","235","464371","0.0-13.0-2.0-1.0-0.0-0.38","792","","j","","","","","","","","","","","","","key","j","16.667000000000055","720","446","j","true","img/S_ambi40.png","坏人","simultaneous",""
"","","","","","html-keyboard-response","236","464674","0.0-13.0-2.0-1.0-0.0-1.38","null","<span style='color:GreenYellow; font-size: 70px;'>正确! </span>","null","","","","","","","","","","","","","","","","","","","","","","","feedback_test"
"","","","","","psychophysics","237","466674","0.0-13.0-2.0-1.0-0.0-0.39","994","","j","","","","","","","","","","","","","key","j","16.66700000000018","720","446","j","true","img/T_ambi40.png","常人","simultaneous",""
"","","","","","html-keyboard-response","238","466983","0.0-13.0-2.0-1.0-0.0-1.39","null","<span style='color:GreenYellow; font-size: 70px;'>正确! </span>","null","","","","","","","","","","","","","","","","","","","","","","","feedback_test"
"","","","","","psychophysics","239","468752","0.0-13.0-2.0-1.0-0.0-0.40","759","","j","","","","","","","","","","","","","key","j","16.666999999999756","720","446","j","true","img/S_ambi40.png","常人","simultaneous",""
"","","","","","html-keyboard-response","240","469057","0.0-13.0-2.0-1.0-0.0-1.40","null","<span style='color:GreenYellow; font-size: 70px;'>正确! </span>","null","","","","","","","","","","","","","","","","","","","","","","","feedback_test"
"","","","","","psychophysics","241","471003","0.0-13.0-2.0-1.0-0.0-0.41","936","","f","","","","","","","","","","","","","key","f","16.66700000000014","720","446","f","true","img/S_ambi40.png","好人","simultaneous",""
"","","","","","html-keyboard-response","242","471307","0.0-13.0-2.0-1.0-0.0-1.41","null","<span style='color:GreenYellow; font-size: 70px;'>正确! </span>","null","","","","","","","","","","","","","","","","","","","","","","","feedback_test"
"","","","","","psychophysics","243","473258","0.0-13.0-2.0-1.0-0.0-0.42","932","","j","","","","","","","","","","","","","key","j","16.96199115044262","720","446","j","true","img/C_ambi40.png","坏人","simultaneous",""
"","","","","","html-keyboard-response","244","473570","0.0-13.0-2.0-1.0-0.0-1.42","null","<span style='color:GreenYellow; font-size: 70px;'>正确! </span>","null","","","","","","","","","","","","","","","","","","","","","","","feedback_test"
"","","","","","psychophysics","245","476078","0.0-13.0-2.0-1.0-0.0-0.43","null","","null","","","","","","","","","","","","","key","null","16.673369127516743","720","446","f","false","img/T_ambi40.png","坏人","simultaneous",""
"","","","","","html-keyboard-response","246","476385","0.0-13.0-2.0-1.0-0.0-1.43","null","<span class='add_' style='color:yellow; font-size: 70px;'> 太慢! </span>","null","","","","","","","","","","","","","","","","","","","","","","","feedback_test"
"","","","","","psychophysics","247","478285","0.0-13.0-2.0-1.0-0.0-0.44","898","","f","","","","","","","","","","","","","key","f","16.81581249999986","720","446","j","false","img/C_ambi40.png","好人","simultaneous",""
"","","","","","html-keyboard-response","248","478588","0.0-13.0-2.0-1.0-0.0-1.44","null","<span style='color:red; font-size: 70px;'>错误! </span>","null","","","","","","","","","","","","","","","","","","","","","","","feedback_test"
"","","","","","psychophysics","249","480329","0.0-13.0-2.0-1.0-0.0-0.45","739","","f","","","","","","","","","","","","","key","f","16.66700000000016","720","446","f","true","img/S_ambi40.png","好人","simultaneous",""
"","","","","","html-keyboard-response","250","480632","0.0-13.0-2.0-1.0-0.0-1.45","null","<span style='color:GreenYellow; font-size: 70px;'>正确! </span>","null","","","","","","","","","","","","","","","","","","","","","","","feedback_test"
"","","","","","psychophysics","251","482358","0.0-13.0-2.0-1.0-0.0-0.46","721","","j","","","","","","","","","","","","","key","j","16.83040196078432","720","446","j","true","img/T_ambi40.png","好人","simultaneous",""
"","","","","","html-keyboard-response","252","482661","0.0-13.0-2.0-1.0-0.0-1.46","null","<span style='color:GreenYellow; font-size: 70px;'>正确! </span>","null","","","","","","","","","","","","","","","","","","","","","","","feedback_test"
"","","","","","psychophysics","253","484529","0.0-13.0-2.0-1.0-0.0-0.47","865","","j","","","","","","","","","","","","","key","j","16.6670000000001","720","446","f","false","img/T_ambi40.png","坏人","simultaneous",""
"","","","","","html-keyboard-response","254","484833","0.0-13.0-2.0-1.0-0.0-1.47","null","<span style='color:red; font-size: 70px;'>错误! </span>","null","","","","","","","","","","","","","","","","","","","","","","","feedback_test"
"","","","","","psychophysics","255","486667","0.0-13.0-2.0-1.0-0.0-0.48","830","","j","","","","","","","","","","","","","key","j","16.67132727272745","720","446","j","true","img/T_ambi40.png","常人","simultaneous",""
"","","","","","html-keyboard-response","256","486970","0.0-13.0-2.0-1.0-0.0-1.48","null","<span style='color:GreenYellow; font-size: 70px;'>正确! </span>","null","","","","","","","","","","","","","","","","","","","","","","","feedback_test"
"","","","","","psychophysics","257","489408","0.0-13.0-2.0-1.0-0.0-0.49","1434","","f","","","","","","","","","","","","","key","f","16.666999999999774","720","446","f","true","img/C_ambi40.png","常人","simultaneous",""
"","","","","","html-keyboard-response","258","489712","0.0-13.0-2.0-1.0-0.0-1.49","null","<span style='color:GreenYellow; font-size: 70px;'>正确! </span>","null","","","","","","","","","","","","","","","","","","","","","","","feedback_test"
"","","","","","psychophysics","259","491650","0.0-13.0-2.0-1.0-0.0-0.50","935","","j","","","","","","","","","","","","","key","j","16.814495575221244","720","446","f","false","img/T_ambi40.png","坏人","simultaneous",""
"","","","","","html-keyboard-response","260","491955","0.0-13.0-2.0-1.0-0.0-1.50","null","<span style='color:red; font-size: 70px;'>错误! </span>","null","","","","","","","","","","","","","","","","","","","","","","","feedback_test"
"","","","","","psychophysics","261","493773","0.0-13.0-2.0-1.0-0.0-0.51","814","","f","","","","","","","","","","","","","key","f","17.637893203883298","720","446","f","true","img/C_ambi40.png","常人","simultaneous",""
"","","","","","html-keyboard-response","262","494079","0.0-13.0-2.0-1.0-0.0-1.51","null","<span style='color:GreenYellow; font-size: 70px;'>正确! </span>","null","","","","","","","","","","","","","","","","","","","","","","","feedback_test"
"","","","","","psychophysics","263","495681","0.0-13.0-2.0-1.0-0.0-0.52","600","","j","","","","","","","","","","","","","key","j","16.8443085106382","720","446","f","false","img/T_ambi40.png","坏人","simultaneous",""
"","","","","","html-keyboard-response","264","495982","0.0-13.0-2.0-1.0-0.0-1.52","null","<span style='color:red; font-size: 70px;'>错误! </span>","null","","","","","","","","","","","","","","","","","","","","","","","feedback_test"
"","","","","","psychophysics","265","497573","0.0-13.0-2.0-1.0-0.0-0.53","588","","f","","","","","","","","","","","","","key","f","16.666999999999902","720","446","f","true","img/S_ambi40.png","好人","simultaneous",""
"","","","","","html-keyboard-response","266","497876","0.0-13.0-2.0-1.0-0.0-1.53","null","<span style='color:GreenYellow; font-size: 70px;'>正确! </span>","null","","","","","","","","","","","","","","","","","","","","","","","feedback_test"
"","","","","","psychophysics","267","500071","0.0-13.0-2.0-1.0-0.0-0.54","1184","","j","","","","","","","","","","","","","key","j","16.666999999999838","720","446","j","true","img/S_ambi40.png","常人","simultaneous",""
"","","","","","html-keyboard-response","268","500376","0.0-13.0-2.0-1.0-0.0-1.54","null","<span style='color:GreenYellow; font-size: 70px;'>正确! </span>","null","","","","","","","","","","","","","","","","","","","","","","","feedback_test"
"","","","","","psychophysics","269","502060","0.0-13.0-2.0-1.0-0.0-0.55","677","","f","","","","","","","","","","","","","key","f","16.66700000000027","720","446","j","false","img/C_ambi40.png","好人","simultaneous",""
"","","","","","html-keyboard-response","270","502363","0.0-13.0-2.0-1.0-0.0-1.55","null","<span style='color:red; font-size: 70px;'>错误! </span>","null","","","","","","","","","","","","","","","","","","","","","","","feedback_test"
"","","","","","psychophysics","271","503815","0.0-13.0-2.0-1.0-0.0-0.56","447","","j","","","","","","","","","","","","","key","j","16.667000000000083","720","446","j","true","img/C_ambi40.png","坏人","simultaneous",""
"","","","","","html-keyboard-response","272","504120","0.0-13.0-2.0-1.0-0.0-1.56","null","<span style='color:GreenYellow; font-size: 70px;'>正确! </span>","null","","","","","","","","","","","","","","","","","","","","","","","feedback_test"
"","","","","","psychophysics","273","505679","0.0-13.0-2.0-1.0-0.0-0.57","556","","f","","","","","","","","","","","","","key","f","16.677336956521764","720","446","f","true","img/S_ambi40.png","好人","simultaneous",""
"","","","","","html-keyboard-response","274","505981","0.0-13.0-2.0-1.0-0.0-1.57","null","<span style='color:GreenYellow; font-size: 70px;'>正确! </span>","null","","","","","","","","","","","","","","","","","","","","","","","feedback_test"
"","","","","","psychophysics","275","507664","0.0-13.0-2.0-1.0-0.0-0.58","680","","j","","","","","","","","","","","","","key","j","16.66699999999996","720","446","j","true","img/T_ambi40.png","好人","simultaneous",""
"","","","","","html-keyboard-response","276","507965","0.0-13.0-2.0-1.0-0.0-1.58","null","<span style='color:GreenYellow; font-size: 70px;'>正确! </span>","null","","","","","","","","","","","","","","","","","","","","","","","feedback_test"
"","","","","","psychophysics","277","509527","0.0-13.0-2.0-1.0-0.0-0.59","555","","f","","","","","","","","","","","","","key","f","16.667000000000016","720","446","j","false","img/S_ambi40.png","坏人","simultaneous",""
"","","","","","html-keyboard-response","278","509830","0.0-13.0-2.0-1.0-0.0-1.59","null","<span style='color:red; font-size: 70px;'>错误! </span>","null","","","","","","","","","","","","","","","","","","","","","","","feedback_test"
"","","","","","psychophysics","279","511487","0.0-13.0-2.0-1.0-0.0-0.60","649","","j","","","","","","","","","","","","","key","j","16.666999999999796","720","446","f","false","img/S_ambi40.png","好人","simultaneous",""
"","","","","","html-keyboard-response","280","511788","0.0-13.0-2.0-1.0-0.0-1.60","null","<span style='color:red; font-size: 70px;'>错误! </span>","null","","","","","","","","","","","","","","","","","","","","","","","feedback_test"
"","","","","","psychophysics","281","513505","0.0-13.0-2.0-1.0-0.0-0.61","706","","j","","","","","","","","","","","","","key","j","16.83040196078432","720","446","j","true","img/S_ambi40.png","坏人","simultaneous",""
"","","","","","html-keyboard-response","282","513807","0.0-13.0-2.0-1.0-0.0-1.61","null","<span style='color:GreenYellow; font-size: 70px;'>正确! </span>","null","","","","","","","","","","","","","","","","","","","","","","","feedback_test"
"","","","","","psychophysics","283","515573","0.0-13.0-2.0-1.0-0.0-0.62","758","","f","","","","","","","","","","","","","key","f","16.82573333333324","720","446","f","true","img/T_ambi40.png","坏人","simultaneous",""
"","","","","","html-keyboard-response","284","515876","0.0-13.0-2.0-1.0-0.0-1.62","null","<span style='color:GreenYellow; font-size: 70px;'>正确! </span>","null","","","","","","","","","","","","","","","","","","","","","","","feedback_test"
"","","","","","psychophysics","285","517756","0.0-13.0-2.0-1.0-0.0-0.63","874","","j","","","","","","","","","","","","","key","j","16.6670000000001","720","446","f","false","img/T_ambi40.png","坏人","simultaneous",""
"","","","","","html-keyboard-response","286","518057","0.0-13.0-2.0-1.0-0.0-1.63","null","<span style='color:red; font-size: 70px;'>错误! </span>","null","","","","","","","","","","","","","","","","","","","","","","","feedback_test"
"","","","","","psychophysics","287","519692","0.0-13.0-2.0-1.0-0.0-0.64","634","","j","","","","","","","","","","","","","key","j","16.666999999999796","720","446","j","true","img/S_ambi40.png","常人","simultaneous",""
"","","","","","html-keyboard-response","288","519993","0.0-13.0-2.0-1.0-0.0-1.64","null","<span style='color:GreenYellow; font-size: 70px;'>正确! </span>","null","","","","","","","","","","","","","","","","","","","","","","","feedback_test"
"","","","","","psychophysics","289","521676","0.0-13.0-2.0-1.0-0.0-0.65","680","","j","","","","","","","","","","","","","key","j","16.667000000000115","720","446","j","true","img/T_ambi40.png","常人","simultaneous",""
"","","","","","html-keyboard-response","290","521978","0.0-13.0-2.0-1.0-0.0-1.65","null","<span style='color:GreenYellow; font-size: 70px;'>正确! </span>","null","","","","","","","","","","","","","","","","","","","","","","","feedback_test"
"","","","","","psychophysics","291","523938","0.0-13.0-2.0-1.0-0.0-0.66","954","","j","","","","","","","","","","","","","key","j","16.666999999999774","720","446","j","true","img/C_ambi40.png","坏人","simultaneous",""
"","","","","","html-keyboard-response","292","524242","0.0-13.0-2.0-1.0-0.0-1.66","null","<span style='color:GreenYellow; font-size: 70px;'>正确! </span>","null","","","","","","","","","","","","","","","","","","","","","","","feedback_test"
"","","","","","psychophysics","293","526177","0.0-13.0-2.0-1.0-0.0-0.67","929","","f","","","","","","","","","","","","","key","f","16.675252173912874","720","446","j","false","img/C_ambi40.png","好人","simultaneous",""
"","","","","","html-keyboard-response","294","526498","0.0-13.0-2.0-1.0-0.0-1.67","null","<span style='color:red; font-size: 70px;'>错误! </span>","null","","","","","","","","","","","","","","","","","","","","","","","feedback_test"
"","","","","","psychophysics","295","528112","0.0-13.0-2.0-1.0-0.0-0.68","609","","j","","","","","","","","","","","","","key","j","16.66700000000007","720","446","f","false","img/C_ambi40.png","常人","simultaneous",""
"","","","","","html-keyboard-response","296","528414","0.0-13.0-2.0-1.0-0.0-1.68","null","<span style='color:red; font-size: 70px;'>错误! </span>","null","","","","","","","","","","","","","","","","","","","","","","","feedback_test"
"","","","","","psychophysics","297","530315","0.0-13.0-2.0-1.0-0.0-0.69","900","","j","","","","","","","","","","","","","key","j","17.75736448598077","720","446","j","true","img/T_ambi40.png","好人","simultaneous",""
"","","","","","html-keyboard-response","298","530622","0.0-13.0-2.0-1.0-0.0-1.69","null","<span style='color:GreenYellow; font-size: 70px;'>正确! </span>","null","","","","","","","","","","","","","","","","","","","","","","","feedback_test"
"","","","","","psychophysics","299","532440","0.0-13.0-2.0-1.0-0.0-0.70","812","","f","","","","","","","","","","","","","key","f","16.667000000000602","720","446","f","true","img/S_ambi40.png","好人","simultaneous",""
"","","","","","html-keyboard-response","300","532746","0.0-13.0-2.0-1.0-0.0-1.70","null","<span style='color:GreenYellow; font-size: 70px;'>正确! </span>","null","","","","","","","","","","","","","","","","","","","","","","","feedback_test"
"","","","","","psychophysics","301","534723","0.0-13.0-2.0-1.0-0.0-0.71","972","","j","","","","","","","","","","","","","key","j","17.256982300884864","720","446","f","false","img/C_ambi40.png","常人","simultaneous",""
"","","","","","html-keyboard-response","302","535027","0.0-13.0-2.0-1.0-0.0-1.71","null","<span style='color:red; font-size: 70px;'>错误! </span>","null","","","","","","","","","","","","","","","","","","","","","","","feedback_test"
"","","","","","html-keyboard-response","303","537375","0.0-13.0-2.0-1.0-1.0","2345","<style>.context{color:white; font-size: 35px; line-height:40px}</style>                              <div><p class='context'>您正确回答了61% 的试次。</p><p class='context'>您的平均反应时为854毫秒。</p><p class='context'>请按任意键进入休息</p></div>"," ","","","","","","","","","","","","","","","","","","","","","","",""
"","","","","","html-button-response","304","564515","0.0-13.0-2.0-1.0-2.0","27135","
                      <p>您当前还剩余3组实验</p>
                      <p>现在是休息时间，当您结束休息后，您可以点击 结束休息 按钮 继续</p>
                      <p>建议休息时间还剩余<span id=""iii"">60</span>秒</p>","0","","","","","","","","","","","","","","","","","","","","","","",""
"","","","","","psychophysics","305","567031","0.0-13.0-2.0-1.0-0.1-0.72","null","","null","","","","","","","","","","","","","key","null","16.90022448979581","720","446","f","false","img/C_ambi40.png","常人","simultaneous",""
"","","","","","html-keyboard-response","306","567337","0.0-13.0-2.0-1.0-0.1-1.72","null","<span class='add_' style='color:yellow; font-size: 70px;'> 太慢! </span>","null","","","","","","","","","","","","","","","","","","","","","","","feedback_test"
"","","","","","psychophysics","307","569064","0.0-13.0-2.0-1.0-0.1-0.73","725","","f","","","","","","","","","","","","","key","f","16.666999999999696","720","446","f","true","img/S_ambi40.png","好人","simultaneous",""
"","","","","","html-keyboard-response","308","569376","0.0-13.0-2.0-1.0-0.1-1.73","null","<span style='color:GreenYellow; font-size: 70px;'>正确! </span>","null","","","","","","","","","","","","","","","","","","","","","","","feedback_test"
"","","","","","psychophysics","309","571120","0.0-13.0-2.0-1.0-0.1-0.74","739","","j","","","","","","","","","","","","","key","j","16.83040196078432","720","446","j","true","img/S_ambi40.png","常人","simultaneous",""
"","","","","","html-keyboard-response","310","571424","0.0-13.0-2.0-1.0-0.1-1.74","null","<span style='color:GreenYellow; font-size: 70px;'>正确! </span>","null","","","","","","","","","","","","","","","","","","","","","","","feedback_test"
"","","","","","psychophysics","311","573167","0.0-13.0-2.0-1.0-0.1-0.75","739","","j","","","","","","","","","","","","","key","j","16.99380392156879","720","446","j","true","img/T_ambi40.png","常人","simultaneous",""
"","","","","","html-keyboard-response","312","573474","0.0-13.0-2.0-1.0-0.1-1.75","null","<span style='color:GreenYellow; font-size: 70px;'>正确! </span>","null","","","","","","","","","","","","","","","","","","","","","","","feedback_test"
"","","","","","psychophysics","313","575466","0.0-13.0-2.0-1.0-0.1-0.76","984","","j","","","","","","","","","","","","","key","j","16.808245762712048","720","446","j","true","img/C_ambi40.png","好人","simultaneous",""
"","","","","","html-keyboard-response","314","575770","0.0-13.0-2.0-1.0-0.1-1.76","null","<span style='color:GreenYellow; font-size: 70px;'>正确! </span>","null","","","","","","","","","","","","","","","","","","","","","","","feedback_test"
"","","","","","psychophysics","315","577395","0.0-13.0-2.0-1.0-0.1-0.77","616","","j","","","","","","","","","","","","","key","j","16.66700000000007","720","446","j","true","img/T_ambi40.png","好人","simultaneous",""
"","","","","","html-keyboard-response","316","577697","0.0-13.0-2.0-1.0-0.1-1.77","null","<span style='color:GreenYellow; font-size: 70px;'>正确! </span>","null","","","","","","","","","","","","","","","","","","","","","","","feedback_test"
"","","","","","psychophysics","317","579662","0.0-13.0-2.0-1.0-0.1-0.78","959","","j","","","","","","","","","","","","","key","j","16.666999999999774","720","446","f","false","img/T_ambi40.png","坏人","simultaneous",""
"","","","","","html-keyboard-response","318","579963","0.0-13.0-2.0-1.0-0.1-1.78","null","<span style='color:red; font-size: 70px;'>错误! </span>","null","","","","","","","","","","","","","","","","","","","","","","","feedback_test"
"","","","","","psychophysics","319","581612","0.0-13.0-2.0-1.0-0.1-0.79","644","","j","","","","","","","","","","","","","key","j","16.66700000000039","720","446","j","true","img/C_ambi40.png","坏人","simultaneous",""
"","","","","","html-keyboard-response","320","581917","0.0-13.0-2.0-1.0-0.1-1.79","null","<span style='color:GreenYellow; font-size: 70px;'>正确! </span>","null","","","","","","","","","","","","","","","","","","","","","","","feedback_test"
"","","","","","psychophysics","321","583610","0.0-13.0-2.0-1.0-0.1-0.80","688","","f","","","","","","","","","","","","","key","f","17.36145833333406","720","446","j","false","img/S_ambi40.png","坏人","simultaneous",""
"","","","","","html-keyboard-response","322","583912","0.0-13.0-2.0-1.0-0.1-1.80","null","<span style='color:red; font-size: 70px;'>错误! </span>","null","","","","","","","","","","","","","","","","","","","","","","","feedback_test"
"","","","","","psychophysics","323","585759","0.0-13.0-2.0-1.0-0.1-0.81","845","","f","","","","","","","","","","","","","key","f","16.67555855855824","720","446","f","true","img/S_ambi40.png","好人","simultaneous",""
"","","","","","html-keyboard-response","324","586065","0.0-13.0-2.0-1.0-0.1-1.81","null","<span style='color:GreenYellow; font-size: 70px;'>正确! </span>","null","","","","","","","","","","","","","","","","","","","","","","","feedback_test"
"","","","","","psychophysics","325","587792","0.0-13.0-2.0-1.0-0.1-0.82","726","","j","","","","","","","","","","","","","key","j","16.66700000000001","720","446","f","false","img/C_ambi40.png","常人","simultaneous",""
"","","","","","html-keyboard-response","326","588095","0.0-13.0-2.0-1.0-0.1-1.82","null","<span style='color:red; font-size: 70px;'>错误! </span>","null","","","","","","","","","","","","","","","","","","","","","","","feedback_test"
"","","","","","psychophysics","327","589786","0.0-13.0-2.0-1.0-0.1-0.83","686","","j","","","","","","","","","","","","","key","j","16.667000000000847","720","446","f","false","img/T_ambi40.png","坏人","simultaneous",""
"","","","","","html-keyboard-response","328","590088","0.0-13.0-2.0-1.0-0.1-1.83","null","<span style='color:red; font-size: 70px;'>错误! </span>","null","","","","","","","","","","","","","","","","","","","","","","","feedback_test"
"","","","","","psychophysics","329","591700","0.0-13.0-2.0-1.0-0.1-0.84","607","","j","","","","","","","","","","","","","key","j","16.666999999999902","720","446","j","true","img/T_ambi40.png","常人","simultaneous",""
"","","","","","html-keyboard-response","330","592003","0.0-13.0-2.0-1.0-0.1-1.84","null","<span style='color:GreenYellow; font-size: 70px;'>正确! </span>","null","","","","","","","","","","","","","","","","","","","","","","","feedback_test"
"","","","","","psychophysics","331","593709","0.0-13.0-2.0-1.0-0.1-0.85","703","","f","","","","","","","","","","","","","key","f","16.667000000000847","720","446","f","true","img/S_ambi40.png","好人","simultaneous",""
"","","","","","html-keyboard-response","332","594013","0.0-13.0-2.0-1.0-0.1-1.85","null","<span style='color:GreenYellow; font-size: 70px;'>正确! </span>","null","","","","","","","","","","","","","","","","","","","","","","","feedback_test"
"","","","","","psychophysics","333","595710","0.0-13.0-2.0-1.0-0.1-0.86","693","","j","","","","","","","","","","","","","key","j","16.666999999999696","720","446","j","true","img/S_ambi40.png","常人","simultaneous",""
"","","","","","html-keyboard-response","334","596012","0.0-13.0-2.0-1.0-0.1-1.86","null","<span style='color:GreenYellow; font-size: 70px;'>正确! </span>","null","","","","","","","","","","","","","","","","","","","","","","","feedback_test"
"","","","","","psychophysics","335","597942","0.0-13.0-2.0-1.0-0.1-0.87","928","","j","","","","","","","","","","","","","key","j","16.666999999999774","720","446","j","true","img/S_ambi40.png","坏人","simultaneous",""
"","","","","","html-keyboard-response","336","598243","0.0-13.0-2.0-1.0-0.1-1.87","null","<span style='color:GreenYellow; font-size: 70px;'>正确! </span>","null","","","","","","","","","","","","","","","","","","","","","","","feedback_test"
"","","","","","psychophysics","337","599880","0.0-13.0-2.0-1.0-0.1-0.88","636","","j","","","","","","","","","","","","","key","j","16.666999999999202","720","446","f","false","img/T_ambi40.png","坏人","simultaneous",""
"","","","","","html-keyboard-response","338","600183","0.0-13.0-2.0-1.0-0.1-1.88","null","<span style='color:red; font-size: 70px;'>错误! </span>","null","","","","","","","","","","","","","","","","","","","","","","","feedback_test"
"","","","","","psychophysics","339","601971","0.0-13.0-2.0-1.0-0.1-0.89","785","","f","","","","","","","","","","","","","key","f","16.825733333332686","720","446","j","false","img/T_ambi40.png","好人","simultaneous",""
"","","","","","html-keyboard-response","340","602277","0.0-13.0-2.0-1.0-0.1-1.89","null","<span style='color:red; font-size: 70px;'>错误! </span>","null","","","","","","","","","","","","","","","","","","","","","","","feedback_test"
"","","","","","psychophysics","341","603731","0.0-13.0-2.0-1.0-0.1-0.90","451","","j","","","","","","","","","","","","","key","j","16.86080232558117","720","446","j","true","img/C_ambi40.png","好人","simultaneous",""
"","","","","","html-keyboard-response","342","604036","0.0-13.0-2.0-1.0-0.1-1.90","null","<span style='color:GreenYellow; font-size: 70px;'>正确! </span>","null","","","","","","","","","","","","","","","","","","","","","","","feedback_test"
"","","","","","psychophysics","343","605790","0.0-13.0-2.0-1.0-0.1-0.91","750","","j","","","","","","","","","","","","","key","j","16.676134615385447","720","446","f","false","img/C_ambi40.png","常人","simultaneous",""
"","","","","","html-keyboard-response","344","606094","0.0-13.0-2.0-1.0-0.1-1.91","null","<span style='color:red; font-size: 70px;'>错误! </span>","null","","","","","","","","","","","","","","","","","","","","","","","feedback_test"
"","","","","","psychophysics","345","607758","0.0-13.0-2.0-1.0-0.1-0.92","663","","j","","","","","","","","","","","","","key","j","16.83707142857079","720","446","j","true","img/C_ambi40.png","坏人","simultaneous",""
"","","","","","html-keyboard-response","346","608063","0.0-13.0-2.0-1.0-0.1-1.92","null","<span style='color:GreenYellow; font-size: 70px;'>正确! </span>","null","","","","","","","","","","","","","","","","","","","","","","","feedback_test"
"","","","","","psychophysics","347","609515","0.0-13.0-2.0-1.0-0.1-0.93","446","","j","","","","","","","","","","","","","key","j","16.66699999999959","720","446","f","false","img/T_ambi40.png","坏人","simultaneous",""
"","","","","","html-keyboard-response","348","609855","0.0-13.0-2.0-1.0-0.1-1.93","null","<span style='color:red; font-size: 70px;'>错误! </span>","null","","","","","","","","","","","","","","","","","","","","","","","feedback_test"
"","","","","","psychophysics","349","611443","0.0-13.0-2.0-1.0-0.1-0.94","581","","j","","","","","","","","","","","","","key","j","17.21048913043468","720","446","f","false","img/C_ambi40.png","常人","simultaneous",""
"","","","","","html-keyboard-response","350","611748","0.0-13.0-2.0-1.0-0.1-1.94","null","<span style='color:red; font-size: 70px;'>错误! </span>","null","","","","","","","","","","","","","","","","","","","","","","","feedback_test"
"","","","","","psychophysics","351","613275","0.0-13.0-2.0-1.0-0.1-0.95","518","","f","","","","","","","","","","","","","key","f","16.666999999999383","720","446","f","true","img/S_ambi40.png","好人","simultaneous",""
"","","","","","html-keyboard-response","352","613580","0.0-13.0-2.0-1.0-0.1-1.95","null","<span style='color:GreenYellow; font-size: 70px;'>正确! </span>","null","","","","","","","","","","","","","","","","","","","","","","","feedback_test"
"","","","","","psychophysics","353","615313","0.0-13.0-2.0-1.0-0.1-0.96","726","","j","","","","","","","","","","","","","key","j","16.66700000000001","720","446","f","false","img/T_ambi40.png","坏人","simultaneous",""
"","","","","","html-keyboard-response","354","615619","0.0-13.0-2.0-1.0-0.1-1.96","null","<span style='color:red; font-size: 70px;'>错误! </span>","null","","","","","","","","","","","","","","","","","","","","","","","feedback_test"
"","","","","","psychophysics","355","617400","0.0-13.0-2.0-1.0-0.1-0.97","775","","j","","","","","","","","","","","","","key","j","16.995320388349903","720","446","j","true","img/C_ambi40.png","坏人","simultaneous",""
"","","","","","html-keyboard-response","356","617702","0.0-13.0-2.0-1.0-0.1-1.97","null","<span style='color:GreenYellow; font-size: 70px;'>正确! </span>","null","","","","","","","","","","","","","","","","","","","","","","","feedback_test"
"","","","","","psychophysics","357","619895","0.0-13.0-2.0-1.0-0.1-0.98","1189","","j","","","","","","","","","","","","","key","j","16.666999999999838","720","446","f","false","img/C_ambi40.png","常人","simultaneous",""
"","","","","","html-keyboard-response","358","620199","0.0-13.0-2.0-1.0-0.1-1.98","null","<span style='color:red; font-size: 70px;'>错误! </span>","null","","","","","","","","","","","","","","","","","","","","","","","feedback_test"
"","","","","","psychophysics","359","621862","0.0-13.0-2.0-1.0-0.1-0.99","650","","j","","","","","","","","","","","","","key","j","16.666999999999533","720","446","j","true","img/S_ambi40.png","常人","simultaneous",""
"","","","","","html-keyboard-response","360","622168","0.0-13.0-2.0-1.0-0.1-1.99","null","<span style='color:GreenYellow; font-size: 70px;'>正确! </span>","null","","","","","","","","","","","","","","","","","","","","","","","feedback_test"
"","","","","","psychophysics","361","623852","0.0-13.0-2.0-1.0-0.1-0.100","680","","j","","","","","","","","","","","","","key","j","16.666999999999696","720","446","f","false","img/C_ambi40.png","常人","simultaneous",""
"","","","","","html-keyboard-response","362","624154","0.0-13.0-2.0-1.0-0.1-1.100","null","<span style='color:red; font-size: 70px;'>错误! </span>","null","","","","","","","","","","","","","","","","","","","","","","","feedback_test"
"","","","","","psychophysics","363","626240","0.0-13.0-2.0-1.0-0.1-0.101","1084","","j","","","","","","","","","","","","","key","j","17.083675000000706","720","446","j","true","img/S_ambi40.png","坏人","simultaneous",""
"","","","","","html-keyboard-response","364","626542","0.0-13.0-2.0-1.0-0.1-1.101","null","<span style='color:GreenYellow; font-size: 70px;'>正确! </span>","null","","","","","","","","","","","","","","","","","","","","","","","feedback_test"
"","","","","","psychophysics","365","628734","0.0-13.0-2.0-1.0-0.1-0.102","1188","","j","","","","","","","","","","","","","key","j","16.666999999999714","720","446","j","true","img/C_ambi40.png","好人","simultaneous",""
"","","","","","html-keyboard-response","366","629037","0.0-13.0-2.0-1.0-0.1-1.102","null","<span style='color:GreenYellow; font-size: 70px;'>正确! </span>","null","","","","","","","","","","","","","","","","","","","","","","","feedback_test"
"","","","","","psychophysics","367","631002","0.0-13.0-2.0-1.0-0.1-0.103","957","","j","","","","","","","","","","","","","key","j","16.666999999999774","720","446","j","true","img/T_ambi40.png","常人","simultaneous",""
"","","","","","html-keyboard-response","368","631303","0.0-13.0-2.0-1.0-0.1-1.103","null","<span style='color:GreenYellow; font-size: 70px;'>正确! </span>","null","","","","","","","","","","","","","","","","","","","","","","","feedback_test"
"","","","","","psychophysics","369","633168","0.0-13.0-2.0-1.0-0.1-0.104","857","","f","","","","","","","","","","","","","key","f","16.66700000000024","720","446","f","true","img/S_ambi40.png","好人","simultaneous",""
"","","","","","html-keyboard-response","370","633473","0.0-13.0-2.0-1.0-0.1-1.104","null","<span style='color:GreenYellow; font-size: 70px;'>正确! </span>","null","","","","","","","","","","","","","","","","","","","","","","","feedback_test"
"","","","","","psychophysics","371","635308","0.0-13.0-2.0-1.0-0.1-0.105","831","","j","","","","","","","","","","","","","key","j","16.66700000000088","720","446","f","false","img/S_ambi40.png","好人","simultaneous",""
"","","","","","html-keyboard-response","372","635610","0.0-13.0-2.0-1.0-0.1-1.105","null","<span style='color:red; font-size: 70px;'>错误! </span>","null","","","","","","","","","","","","","","","","","","","","","","","feedback_test"
"","","","","","psychophysics","373","637478","0.0-13.0-2.0-1.0-0.1-0.106","856","","f","","","","","","","","","","","","","key","f","16.98153211009142","720","446","f","true","img/T_ambi40.png","坏人","simultaneous",""
"","","","","","html-keyboard-response","374","637781","0.0-13.0-2.0-1.0-0.1-1.106","null","<span style='color:GreenYellow; font-size: 70px;'>正确! </span>","null","","","","","","","","","","","","","","","","","","","","","","","feedback_test"
"","","","","","psychophysics","375","639552","0.0-13.0-2.0-1.0-0.1-0.107","764","","j","","","","","","","","","","","","","key","j","16.666999999999202","720","446","j","true","img/T_ambi40.png","好人","simultaneous",""
"","","","","","html-keyboard-response","376","639859","0.0-13.0-2.0-1.0-0.1-1.107","null","<span style='color:GreenYellow; font-size: 70px;'>正确! </span>","null","","","","","","","","","","","","","","","","","","","","","","","feedback_test"
"","","","","","psychophysics","377","641623","0.0-13.0-2.0-1.0-0.1-0.108","754","","j","","","","","","","","","","","","","key","j","16.666999999999042","720","446","j","true","img/C_ambi40.png","好人","simultaneous",""
"","","","","","html-keyboard-response","378","641930","0.0-13.0-2.0-1.0-0.1-1.108","null","<span style='color:GreenYellow; font-size: 70px;'>正确! </span>","null","","","","","","","","","","","","","","","","","","","","","","","feedback_test"
"","","","","","psychophysics","379","643563","0.0-13.0-2.0-1.0-0.1-0.109","631","","f","","","","","","","","","","","","","key","f","17.193326315789875","720","446","f","true","img/T_ambi40.png","坏人","simultaneous",""
"","","","","","html-keyboard-response","380","643868","0.0-13.0-2.0-1.0-0.1-1.109","null","<span style='color:GreenYellow; font-size: 70px;'>正确! </span>","null","","","","","","","","","","","","","","","","","","","","","","","feedback_test"
"","","","","","psychophysics","381","645610","0.0-13.0-2.0-1.0-0.1-0.110","739","","j","","","","","","","","","","","","","key","j","16.66700000000001","720","446","f","false","img/C_ambi40.png","常人","simultaneous",""
"","","","","","html-keyboard-response","382","645915","0.0-13.0-2.0-1.0-0.1-1.110","null","<span style='color:red; font-size: 70px;'>错误! </span>","null","","","","","","","","","","","","","","","","","","","","","","","feedback_test"
"","","","","","psychophysics","383","647697","0.0-13.0-2.0-1.0-0.1-0.111","780","","j","","","","","","","","","","","","","key","j","16.671560747664266","720","446","j","true","img/S_ambi40.png","常人","simultaneous",""
"","","","","","html-keyboard-response","384","648001","0.0-13.0-2.0-1.0-0.1-1.111","null","<span style='color:GreenYellow; font-size: 70px;'>正确! </span>","null","","","","","","","","","","","","","","","","","","","","","","","feedback_test"
"","","","","","psychophysics","385","649997","0.0-13.0-2.0-1.0-0.1-0.112","991","","f","","","","","","","","","","","","","key","f","16.808245762712048","720","446","j","false","img/T_ambi40.png","好人","simultaneous",""
"","","","","","html-keyboard-response","386","650301","0.0-13.0-2.0-1.0-0.1-1.112","null","<span style='color:red; font-size: 70px;'>错误! </span>","null","","","","","","","","","","","","","","","","","","","","","","","feedback_test"
"","","","","","psychophysics","387","652248","0.0-13.0-2.0-1.0-0.1-0.113","942","","f","","","","","","","","","","","","","key","f","16.961991150443136","720","446","f","true","img/T_ambi40.png","坏人","simultaneous",""
"","","","","","html-keyboard-response","388","652550","0.0-13.0-2.0-1.0-0.1-1.113","null","<span style='color:GreenYellow; font-size: 70px;'>正确! </span>","null","","","","","","","","","","","","","","","","","","","","","","","feedback_test"
"","","","","","psychophysics","389","654673","0.0-13.0-2.0-1.0-0.1-0.114","1120","","j","","","","","","","","","","","","","key","j","16.667000000000126","720","446","f","false","img/S_ambi40.png","好人","simultaneous",""
"","","","","","html-keyboard-response","390","654976","0.0-13.0-2.0-1.0-0.1-1.114","null","<span style='color:red; font-size: 70px;'>错误! </span>","null","","","","","","","","","","","","","","","","","","","","","","","feedback_test"
"","","","","","psychophysics","391","656831","0.0-13.0-2.0-1.0-0.1-0.115","851","","j","","","","","","","","","","","","","key","j","16.666999999999813","720","446","f","false","img/C_ambi40.png","常人","simultaneous",""
"","","","","","html-keyboard-response","392","657135","0.0-13.0-2.0-1.0-0.1-1.115","null","<span style='color:red; font-size: 70px;'>错误! </span>","null","","","","","","","","","","","","","","","","","","","","","","","feedback_test"
"","","","","","psychophysics","393","659000","0.0-13.0-2.0-1.0-0.1-0.116","862","","j","","","","","","","","","","","","","key","j","16.6670000000001","720","446","j","true","img/C_ambi40.png","坏人","simultaneous",""
"","","","","","html-keyboard-response","394","659303","0.0-13.0-2.0-1.0-0.1-1.116","null","<span style='color:GreenYellow; font-size: 70px;'>正确! </span>","null","","","","","","","","","","","","","","","","","","","","","","","feedback_test"
"","","","","","psychophysics","395","661001","0.0-13.0-2.0-1.0-0.1-0.117","696","","j","","","","","","","","","","","","","key","j","16.666999999999696","720","446","j","true","img/T_ambi40.png","常人","simultaneous",""
"","","","","","html-keyboard-response","396","661303","0.0-13.0-2.0-1.0-0.1-1.117","null","<span style='color:GreenYellow; font-size: 70px;'>正确! </span>","null","","","","","","","","","","","","","","","","","","","","","","","feedback_test"
"","","","","","psychophysics","397","663075","0.0-13.0-2.0-1.0-0.1-0.118","768","","f","","","","","","","","","","","","","key","f","16.666999999999202","720","446","j","false","img/S_ambi40.png","坏人","simultaneous",""
"","","","","","html-keyboard-response","398","663378","0.0-13.0-2.0-1.0-0.1-1.118","null","<span style='color:red; font-size: 70px;'>错误! </span>","null","","","","","","","","","","","","","","","","","","","","","","","feedback_test"
"","","","","","psychophysics","399","665375","0.0-13.0-2.0-1.0-0.1-0.119","995","","f","","","","","","","","","","","","","key","f","16.66700000000018","720","446","f","true","img/S_ambi40.png","好人","simultaneous",""
"","","","","","html-keyboard-response","400","665682","0.0-13.0-2.0-1.0-0.1-1.119","null","<span style='color:GreenYellow; font-size: 70px;'>正确! </span>","null","","","","","","","","","","","","","","","","","","","","","","","feedback_test"
"","","","","","psychophysics","401","667435","0.0-13.0-2.0-1.0-0.1-0.120","747","","f","","","","","","","","","","","","","key","f","17.166519607843","720","446","f","true","img/S_ambi40.png","好人","simultaneous",""
"","","","","","html-keyboard-response","402","667739","0.0-13.0-2.0-1.0-0.1-1.120","null","<span style='color:GreenYellow; font-size: 70px;'>正确! </span>","null","","","","","","","","","","","","","","","","","","","","","","","feedback_test"
"","","","","","psychophysics","403","669378","0.0-13.0-2.0-1.0-0.1-0.121","637","","j","","","","","","","","","","","","","key","j","16.840614583332354","720","446","j","true","img/S_ambi40.png","常人","simultaneous",""
"","","","","","html-keyboard-response","404","669680","0.0-13.0-2.0-1.0-0.1-1.121","null","<span style='color:GreenYellow; font-size: 70px;'>正确! </span>","null","","","","","","","","","","","","","","","","","","","","","","","feedback_test"
"","","","","","psychophysics","405","671332","0.0-13.0-2.0-1.0-0.1-0.122","643","","j","","","","","","","","","","","","","key","j","16.666999999999202","720","446","f","false","img/C_ambi40.png","常人","simultaneous",""
"","","","","","html-keyboard-response","406","671635","0.0-13.0-2.0-1.0-0.1-1.122","null","<span style='color:red; font-size: 70px;'>错误! </span>","null","","","","","","","","","","","","","","","","","","","","","","","feedback_test"
"","","","","","psychophysics","407","673658","0.0-13.0-2.0-1.0-0.1-0.123","1022","","f","","","","","","","","","","","","","key","f","16.66699999999934","720","446","j","false","img/T_ambi40.png","好人","simultaneous",""
"","","","","","html-keyboard-response","408","673964","0.0-13.0-2.0-1.0-0.1-1.123","null","<span style='color:red; font-size: 70px;'>错误! </span>","null","","","","","","","","","","","","","","","","","","","","","","","feedback_test"
"","","","","","psychophysics","409","675636","0.0-13.0-2.0-1.0-0.1-0.124","669","","f","","","","","","","","","","","","","key","f","16.666999999999533","720","446","f","true","img/S_ambi40.png","好人","simultaneous",""
"","","","","","html-keyboard-response","410","675938","0.0-13.0-2.0-1.0-0.1-1.124","null","<span style='color:GreenYellow; font-size: 70px;'>正确! </span>","null","","","","","","","","","","","","","","","","","","","","","","","feedback_test"
"","","","","","psychophysics","411","677743","0.0-13.0-2.0-1.0-0.1-0.125","800","","j","","","","","","","","","","","","","key","j","16.66699999999936","720","446","j","true","img/C_ambi40.png","好人","simultaneous",""
"","","","","","html-keyboard-response","412","678047","0.0-13.0-2.0-1.0-0.1-1.125","null","<span style='color:GreenYellow; font-size: 70px;'>正确! </span>","null","","","","","","","","","","","","","","","","","","","","","","","feedback_test"
"","","","","","psychophysics","413","680380","0.0-13.0-2.0-1.0-0.1-0.126","1329","","f","","","","","","","","","","","","","key","f","16.908550724637713","720","446","f","true","img/T_ambi40.png","坏人","simultaneous",""
"","","","","","html-keyboard-response","414","680682","0.0-13.0-2.0-1.0-0.1-1.126","null","<span style='color:GreenYellow; font-size: 70px;'>正确! </span>","null","","","","","","","","","","","","","","","","","","","","","","","feedback_test"
"","","","","","psychophysics","415","682580","0.0-13.0-2.0-1.0-0.1-0.127","889","","j","","","","","","","","","","","","","key","j","16.66700000000024","720","446","j","true","img/S_ambi40.png","坏人","simultaneous",""
"","","","","","html-keyboard-response","416","682882","0.0-13.0-2.0-1.0-0.1-1.127","null","<span style='color:GreenYellow; font-size: 70px;'>正确! </span>","null","","","","","","","","","","","","","","","","","","","","","","","feedback_test"
"","","","","","psychophysics","417","684616","0.0-13.0-2.0-1.0-0.1-0.128","729","","j","","","","","","","","","","","","","key","j","17.000339999999852","720","446","j","true","img/T_ambi40.png","常人","simultaneous",""
"","","","","","html-keyboard-response","418","684921","0.0-13.0-2.0-1.0-0.1-1.128","null","<span style='color:GreenYellow; font-size: 70px;'>正确! </span>","null","","","","","","","","","","","","","","","","","","","","","","","feedback_test"
"","","","","","psychophysics","419","686532","0.0-13.0-2.0-1.0-0.1-0.129","602","","j","","","","","","","","","","","","","key","j","17.03172340425613","720","446","f","false","img/C_ambi40.png","常人","simultaneous",""
"","","","","","html-keyboard-response","420","686836","0.0-13.0-2.0-1.0-0.1-1.129","null","<span style='color:red; font-size: 70px;'>错误! </span>","null","","","","","","","","","","","","","","","","","","","","","","","feedback_test"
"","","","","","psychophysics","421","689238","0.0-13.0-2.0-1.0-0.1-0.130","1399","","f","","","","","","","","","","","","","key","f","16.667000000000364","720","446","f","true","img/T_ambi40.png","坏人","simultaneous",""
"","","","","","html-keyboard-response","422","689543","0.0-13.0-2.0-1.0-0.1-1.130","null","<span style='color:GreenYellow; font-size: 70px;'>正确! </span>","null","","","","","","","","","","","","","","","","","","","","","","","feedback_test"
"","","","","","psychophysics","423","691370","0.0-13.0-2.0-1.0-0.1-0.131","822","","j","","","","","","","","","","","","","key","j","16.821324074073885","720","446","j","true","img/C_ambi40.png","坏人","simultaneous",""
"","","","","","html-keyboard-response","424","691677","0.0-13.0-2.0-1.0-0.1-1.131","null","<span style='color:GreenYellow; font-size: 70px;'>正确! </span>","null","","","","","","","","","","","","","","","","","","","","","","","feedback_test"
"","","","","","psychophysics","425","693597","0.0-13.0-2.0-1.0-0.1-0.132","917","","j","","","","","","","","","","","","","key","j","17.11745945945894","720","446","j","true","img/T_ambi40.png","好人","simultaneous",""
"","","","","","html-keyboard-response","426","693902","0.0-13.0-2.0-1.0-0.1-1.132","null","<span style='color:GreenYellow; font-size: 70px;'>正确! </span>","null","","","","","","","","","","","","","","","","","","","","","","","feedback_test"
"","","","","","psychophysics","427","696015","0.0-13.0-2.0-1.0-0.1-0.133","1096","","j","","","","","","","","","","","","","key","j","17.21345901639262","720","446","j","true","img/S_ambi40.png","坏人","simultaneous",""
"","","","","","html-keyboard-response","428","696320","0.0-13.0-2.0-1.0-0.1-1.133","null","<span style='color:GreenYellow; font-size: 70px;'>正确! </span>","null","","","","","","","","","","","","","","","","","","","","","","","feedback_test"
"","","","","","psychophysics","429","698083","0.0-13.0-2.0-1.0-0.1-0.134","757","","f","","","","","","","","","","","","","key","f","16.987519230768577","720","446","f","true","img/S_ambi40.png","好人","simultaneous",""
"","","","","","html-keyboard-response","430","698388","0.0-13.0-2.0-1.0-0.1-1.134","null","<span style='color:GreenYellow; font-size: 70px;'>正确! </span>","null","","","","","","","","","","","","","","","","","","","","","","","feedback_test"
"","","","","","psychophysics","431","700310","0.0-13.0-2.0-1.0-0.1-0.135","907","","j","","","","","","","","","","","","","key","j","16.8132017543856","720","446","j","true","img/S_ambi40.png","常人","simultaneous",""
