subj_idx,year,education,dist,trial_type,rt,response,key_press,condition,correct_response,correct,word,Image,shape_en,valence,ACC,exp,matchness
1,2001,7,524.3,psychophysics,309,j,j,word_first,j,TRUE,好人,img/C_ambi40.png,circle,Good,1,exp2,match
1,2001,7,524.3,psychophysics,62,j,j,word_first,f,FALSE,常人,img/C_ambi40.png,circle,Neutral,0,exp2,mismatch
1,2001,7,524.3,psychophysics,177,j,j,word_first,j,TRUE,好人,img/C_ambi40.png,circle,Good,1,exp2,match
1,2001,7,524.3,psychophysics,235,j,j,word_first,f,FALSE,好人,img/T_ambi40.png,triangle,Good,0,exp2,mismatch
1,2001,7,524.3,psychophysics,465,j,j,word_first,f,FALSE,坏人,img/T_ambi40.png,triangle,Bad,0,exp2,mismatch
1,2001,7,524.3,psychophysics,497,j,j,word_first,j,TRUE,常人,img/T_ambi40.png,triangle,Neutral,1,exp2,match
1,2001,7,524.3,psychophysics,584,j,j,word_first,j,TRUE,坏人,img/S_ambi40.png,square,Bad,1,exp2,match
1,2001,7,524.3,psychophysics,247,j,j,word_first,f,FALSE,常人,img/S_ambi40.png,square,Neutral,0,exp2,mismatch
1,2001,7,524.3,psychophysics,177,j,j,word_first,j,TRUE,常人,img/T_ambi40.png,triangle,Neutral,1,exp2,match
1,2001,7,524.3,psychophysics,1421,f,f,word_first,f,TRUE,坏人,img/C_ambi40.png,circle,Bad,1,exp2,mismatch
1,2001,7,524.3,psychophysics,899,f,f,word_first,f,TRUE,常人,img/S_ambi40.png,square,Neutral,1,exp2,mismatch
1,2001,7,524.3,psychophysics,522,j,j,simultaneous,j,TRUE,常人,img/T_ambi40.png,triangle,Neutral,1,exp2,match
1,2001,7,524.3,psychophysics,664,j,j,simultaneous,f,FALSE,好人,img/T_ambi40.png,triangle,Good,0,exp2,mismatch
1,2001,7,524.3,psychophysics,646,j,j,simultaneous,f,FALSE,坏人,img/C_ambi40.png,circle,Bad,0,exp2,mismatch
1,2001,7,524.3,psychophysics,592,j,j,simultaneous,j,TRUE,坏人,img/S_ambi40.png,square,Bad,1,exp2,match
1,2001,7,524.3,psychophysics,412,j,j,simultaneous,f,FALSE,好人,img/S_ambi40.png,square,Good,0,exp2,mismatch
1,2001,7,524.3,psychophysics,424,j,j,simultaneous,f,FALSE,好人,img/T_ambi40.png,triangle,Good,0,exp2,mismatch
1,2001,7,524.3,psychophysics,402,j,j,simultaneous,j,TRUE,好人,img/C_ambi40.png,circle,Good,1,exp2,match
1,2001,7,524.3,psychophysics,527,j,j,simultaneous,j,TRUE,常人,img/T_ambi40.png,triangle,Neutral,1,exp2,match
1,2001,7,524.3,psychophysics,882,j,j,simultaneous,f,FALSE,好人,img/T_ambi40.png,triangle,Good,0,exp2,mismatch
1,2001,7,524.3,psychophysics,506,j,j,simultaneous,j,TRUE,常人,img/T_ambi40.png,triangle,Neutral,1,exp2,match
2,2001,5,521.32,psychophysics,1454,j,j,simultaneous,f,FALSE,好人,img/S_ambi40.png,square,Good,0,exp2,match
2,2001,5,521.32,psychophysics,1406,f,f,simultaneous,f,TRUE,常人,img/C_ambi40.png,circle,Neutral,1,exp2,match
2,2001,5,521.32,psychophysics,910,j,j,simultaneous,j,TRUE,好人,img/C_ambi40.png,circle,Good,1,exp2,mismatch
2,2001,5,521.32,psychophysics,1068,j,j,simultaneous,j,TRUE,常人,img/S_ambi40.png,square,Neutral,1,exp2,mismatch
2,2001,5,521.32,psychophysics,885,f,f,simultaneous,f,TRUE,坏人,img/T_ambi40.png,triangle,Bad,1,exp2,match
2,2001,5,521.32,psychophysics,883,j,j,simultaneous,j,TRUE,坏人,img/S_ambi40.png,square,Bad,1,exp2,mismatch
2,2001,5,521.32,psychophysics,638,j,j,simultaneous,f,FALSE,常人,img/C_ambi40.png,circle,Neutral,0,exp2,match
2,2001,5,521.32,psychophysics,1439,j,j,simultaneous,j,TRUE,坏人,img/C_ambi40.png,circle,Bad,1,exp2,mismatch
2,2001,5,521.32,psychophysics,754,j,j,simultaneous,j,TRUE,好人,img/T_ambi40.png,triangle,Good,1,exp2,mismatch
2,2001,5,521.32,psychophysics,649,j,j,simultaneous,j,TRUE,常人,img/T_ambi40.png,triangle,Neutral,1,exp2,mismatch
2,2001,5,521.32,psychophysics,1112,j,j,simultaneous,f,FALSE,坏人,img/T_ambi40.png,triangle,Bad,0,exp2,match
2,2001,5,521.32,psychophysics,853,j,j,simultaneous,f,FALSE,好人,img/S_ambi40.png,square,Good,0,exp2,match
2,2001,5,521.32,psychophysics,718,j,j,simultaneous,f,FALSE,常人,img/C_ambi40.png,circle,Neutral,0,exp2,match
2,2001,5,521.32,psychophysics,1311,j,j,simultaneous,j,TRUE,好人,img/T_ambi40.png,triangle,Good,1,exp2,mismatch
2,2001,5,521.32,psychophysics,957,f,f,simultaneous,f,TRUE,坏人,img/T_ambi40.png,triangle,Bad,1,exp2,match
2,2001,5,521.32,psychophysics,790,j,j,simultaneous,j,TRUE,坏人,img/S_ambi40.png,square,Bad,1,exp2,mismatch
2,2001,5,521.32,psychophysics,1220,j,j,simultaneous,j,TRUE,常人,img/T_ambi40.png,triangle,Neutral,1,exp2,mismatch
2,2001,5,521.32,psychophysics,830,f,f,simultaneous,f,TRUE,坏人,img/T_ambi40.png,triangle,Bad,1,exp2,match
2,2001,5,521.32,psychophysics,915,f,f,simultaneous,f,TRUE,好人,img/S_ambi40.png,square,Good,1,exp2,match
2,2001,5,521.32,psychophysics,632,j,j,simultaneous,f,FALSE,常人,img/C_ambi40.png,circle,Neutral,0,exp2,match
2,2001,5,521.32,psychophysics,752,j,j,simultaneous,j,TRUE,坏人,img/C_ambi40.png,circle,Bad,1,exp2,mismatch
2,2001,5,521.32,psychophysics,575,f,f,simultaneous,f,TRUE,好人,img/S_ambi40.png,square,Good,1,exp2,match
2,2001,5,521.32,psychophysics,695,j,j,simultaneous,j,TRUE,常人,img/S_ambi40.png,square,Neutral,1,exp2,mismatch
2,2001,5,521.32,psychophysics,430,j,j,simultaneous,j,TRUE,好人,img/C_ambi40.png,circle,Good,1,exp2,mismatch
2,2001,5,521.32,psychophysics,804,f,f,simultaneous,f,TRUE,坏人,img/T_ambi40.png,triangle,Bad,1,exp2,match
2,2001,5,521.32,psychophysics,746,f,f,simultaneous,f,TRUE,好人,img/S_ambi40.png,square,Good,1,exp2,match
2,2001,5,521.32,psychophysics,648,j,j,simultaneous,f,FALSE,常人,img/C_ambi40.png,circle,Neutral,0,exp2,match
2,2001,5,521.32,psychophysics,730,j,j,simultaneous,f,FALSE,坏人,img/T_ambi40.png,triangle,Bad,0,exp2,match
2,2001,5,521.32,psychophysics,491,f,f,simultaneous,j,FALSE,好人,img/C_ambi40.png,circle,Good,0,exp2,mismatch
2,2001,5,521.32,psychophysics,741,f,f,simultaneous,j,FALSE,坏人,img/S_ambi40.png,square,Bad,0,exp2,mismatch
2,2001,5,521.32,psychophysics,1103,j,j,simultaneous,j,TRUE,坏人,img/C_ambi40.png,circle,Bad,1,exp2,mismatch
2,2001,5,521.32,psychophysics,604,j,j,simultaneous,j,TRUE,常人,img/T_ambi40.png,triangle,Neutral,1,exp2,mismatch
2,2001,5,521.32,psychophysics,536,j,j,simultaneous,f,FALSE,好人,img/S_ambi40.png,square,Good,0,exp2,match
2,2001,5,521.32,psychophysics,352,f,f,simultaneous,j,FALSE,好人,img/T_ambi40.png,triangle,Good,0,exp2,mismatch
2,2001,5,521.32,psychophysics,702,j,j,simultaneous,f,FALSE,常人,img/C_ambi40.png,circle,Neutral,0,exp2,match
2,2001,5,521.32,psychophysics,607,j,j,simultaneous,f,FALSE,常人,img/C_ambi40.png,circle,Neutral,0,exp2,match
2,2001,5,521.32,psychophysics,486,j,j,simultaneous,f,FALSE,常人,img/C_ambi40.png,circle,Neutral,0,exp2,match
2,2001,5,521.32,psychophysics,792,j,j,simultaneous,j,TRUE,坏人,img/S_ambi40.png,square,Bad,1,exp2,mismatch
2,2001,5,521.32,psychophysics,994,j,j,simultaneous,j,TRUE,常人,img/T_ambi40.png,triangle,Neutral,1,exp2,mismatch
2,2001,5,521.32,psychophysics,759,j,j,simultaneous,j,TRUE,常人,img/S_ambi40.png,square,Neutral,1,exp2,mismatch
2,2001,5,521.32,psychophysics,936,f,f,simultaneous,f,TRUE,好人,img/S_ambi40.png,square,Good,1,exp2,match
2,2001,5,521.32,psychophysics,932,j,j,simultaneous,j,TRUE,坏人,img/C_ambi40.png,circle,Bad,1,exp2,mismatch
2,2001,5,521.32,psychophysics,898,f,f,simultaneous,j,FALSE,好人,img/C_ambi40.png,circle,Good,0,exp2,mismatch
2,2001,5,521.32,psychophysics,739,f,f,simultaneous,f,TRUE,好人,img/S_ambi40.png,square,Good,1,exp2,match
2,2001,5,521.32,psychophysics,721,j,j,simultaneous,j,TRUE,好人,img/T_ambi40.png,triangle,Good,1,exp2,mismatch
2,2001,5,521.32,psychophysics,865,j,j,simultaneous,f,FALSE,坏人,img/T_ambi40.png,triangle,Bad,0,exp2,match
2,2001,5,521.32,psychophysics,830,j,j,simultaneous,j,TRUE,常人,img/T_ambi40.png,triangle,Neutral,1,exp2,mismatch
2,2001,5,521.32,psychophysics,1434,f,f,simultaneous,f,TRUE,常人,img/C_ambi40.png,circle,Neutral,1,exp2,match
2,2001,5,521.32,psychophysics,935,j,j,simultaneous,f,FALSE,坏人,img/T_ambi40.png,triangle,Bad,0,exp2,match
2,2001,5,521.32,psychophysics,814,f,f,simultaneous,f,TRUE,常人,img/C_ambi40.png,circle,Neutral,1,exp2,match
2,2001,5,521.32,psychophysics,600,j,j,simultaneous,f,FALSE,坏人,img/T_ambi40.png,triangle,Bad,0,exp2,match
2,2001,5,521.32,psychophysics,588,f,f,simultaneous,f,TRUE,好人,img/S_ambi40.png,square,Good,1,exp2,match
2,2001,5,521.32,psychophysics,1184,j,j,simultaneous,j,TRUE,常人,img/S_ambi40.png,square,Neutral,1,exp2,mismatch
2,2001,5,521.32,psychophysics,677,f,f,simultaneous,j,FALSE,好人,img/C_ambi40.png,circle,Good,0,exp2,mismatch
2,2001,5,521.32,psychophysics,447,j,j,simultaneous,j,TRUE,坏人,img/C_ambi40.png,circle,Bad,1,exp2,mismatch
2,2001,5,521.32,psychophysics,556,f,f,simultaneous,f,TRUE,好人,img/S_ambi40.png,square,Good,1,exp2,match
2,2001,5,521.32,psychophysics,680,j,j,simultaneous,j,TRUE,好人,img/T_ambi40.png,triangle,Good,1,exp2,mismatch
2,2001,5,521.32,psychophysics,555,f,f,simultaneous,j,FALSE,坏人,img/S_ambi40.png,square,Bad,0,exp2,mismatch
2,2001,5,521.32,psychophysics,649,j,j,simultaneous,f,FALSE,好人,img/S_ambi40.png,square,Good,0,exp2,match
2,2001,5,521.32,psychophysics,706,j,j,simultaneous,j,TRUE,坏人,img/S_ambi40.png,square,Bad,1,exp2,mismatch
2,2001,5,521.32,psychophysics,758,f,f,simultaneous,f,TRUE,坏人,img/T_ambi40.png,triangle,Bad,1,exp2,match
2,2001,5,521.32,psychophysics,874,j,j,simultaneous,f,FALSE,坏人,img/T_ambi40.png,triangle,Bad,0,exp2,match
2,2001,5,521.32,psychophysics,634,j,j,simultaneous,j,TRUE,常人,img/S_ambi40.png,square,Neutral,1,exp2,mismatch
2,2001,5,521.32,psychophysics,680,j,j,simultaneous,j,TRUE,常人,img/T_ambi40.png,triangle,Neutral,1,exp2,mismatch
2,2001,5,521.32,psychophysics,954,j,j,simultaneous,j,TRUE,坏人,img/C_ambi40.png,circle,Bad,1,exp2,mismatch
2,2001,5,521.32,psychophysics,929,f,f,simultaneous,j,FALSE,好人,img/C_ambi40.png,circle,Good,0,exp2,mismatch
2,2001,5,521.32,psychophysics,609,j,j,simultaneous,f,FALSE,常人,img/C_ambi40.png,circle,Neutral,0,exp2,match
2,2001,5,521.32,psychophysics,900,j,j,simultaneous,j,TRUE,好人,img/T_ambi40.png,triangle,Good,1,exp2,mismatch
2,2001,5,521.32,psychophysics,812,f,f,simultaneous,f,TRUE,好人,img/S_ambi40.png,square,Good,1,exp2,match
2,2001,5,521.32,psychophysics,972,j,j,simultaneous,f,FALSE,常人,img/C_ambi40.png,circle,Neutral,0,exp2,match
2,2001,5,521.32,psychophysics,725,f,f,simultaneous,f,TRUE,好人,img/S_ambi40.png,square,Good,1,exp2,match
2,2001,5,521.32,psychophysics,739,j,j,simultaneous,j,TRUE,常人,img/S_ambi40.png,square,Neutral,1,exp2,mismatch
2,2001,5,521.32,psychophysics,739,j,j,simultaneous,j,TRUE,常人,img/T_ambi40.png,triangle,Neutral,1,exp2,mismatch
2,2001,5,521.32,psychophysics,984,j,j,simultaneous,j,TRUE,好人,img/C_ambi40.png,circle,Good,1,exp2,mismatch
2,2001,5,521.32,psychophysics,616,j,j,simultaneous,j,TRUE,好人,img/T_ambi40.png,triangle,Good,1,exp2,mismatch
2,2001,5,521.32,psychophysics,959,j,j,simultaneous,f,FALSE,坏人,img/T_ambi40.png,triangle,Bad,0,exp2,match
2,2001,5,521.32,psychophysics,644,j,j,simultaneous,j,TRUE,坏人,img/C_ambi40.png,circle,Bad,1,exp2,mismatch
2,2001,5,521.32,psychophysics,688,f,f,simultaneous,j,FALSE,坏人,img/S_ambi40.png,square,Bad,0,exp2,mismatch
2,2001,5,521.32,psychophysics,845,f,f,simultaneous,f,TRUE,好人,img/S_ambi40.png,square,Good,1,exp2,match
2,2001,5,521.32,psychophysics,726,j,j,simultaneous,f,FALSE,常人,img/C_ambi40.png,circle,Neutral,0,exp2,match
2,2001,5,521.32,psychophysics,686,j,j,simultaneous,f,FALSE,坏人,img/T_ambi40.png,triangle,Bad,0,exp2,match
2,2001,5,521.32,psychophysics,607,j,j,simultaneous,j,TRUE,常人,img/T_ambi40.png,triangle,Neutral,1,exp2,mismatch
2,2001,5,521.32,psychophysics,703,f,f,simultaneous,f,TRUE,好人,img/S_ambi40.png,square,Good,1,exp2,match
2,2001,5,521.32,psychophysics,693,j,j,simultaneous,j,TRUE,常人,img/S_ambi40.png,square,Neutral,1,exp2,mismatch
2,2001,5,521.32,psychophysics,928,j,j,simultaneous,j,TRUE,坏人,img/S_ambi40.png,square,Bad,1,exp2,mismatch
2,2001,5,521.32,psychophysics,636,j,j,simultaneous,f,FALSE,坏人,img/T_ambi40.png,triangle,Bad,0,exp2,match
2,2001,5,521.32,psychophysics,785,f,f,simultaneous,j,FALSE,好人,img/T_ambi40.png,triangle,Good,0,exp2,mismatch
2,2001,5,521.32,psychophysics,451,j,j,simultaneous,j,TRUE,好人,img/C_ambi40.png,circle,Good,1,exp2,mismatch
2,2001,5,521.32,psychophysics,750,j,j,simultaneous,f,FALSE,常人,img/C_ambi40.png,circle,Neutral,0,exp2,match
2,2001,5,521.32,psychophysics,663,j,j,simultaneous,j,TRUE,坏人,img/C_ambi40.png,circle,Bad,1,exp2,mismatch
2,2001,5,521.32,psychophysics,446,j,j,simultaneous,f,FALSE,坏人,img/T_ambi40.png,triangle,Bad,0,exp2,match
2,2001,5,521.32,psychophysics,581,j,j,simultaneous,f,FALSE,常人,img/C_ambi40.png,circle,Neutral,0,exp2,match
2,2001,5,521.32,psychophysics,518,f,f,simultaneous,f,TRUE,好人,img/S_ambi40.png,square,Good,1,exp2,match
2,2001,5,521.32,psychophysics,726,j,j,simultaneous,f,FALSE,坏人,img/T_ambi40.png,triangle,Bad,0,exp2,match
2,2001,5,521.32,psychophysics,775,j,j,simultaneous,j,TRUE,坏人,img/C_ambi40.png,circle,Bad,1,exp2,mismatch
2,2001,5,521.32,psychophysics,1189,j,j,simultaneous,f,FALSE,常人,img/C_ambi40.png,circle,Neutral,0,exp2,match
2,2001,5,521.32,psychophysics,650,j,j,simultaneous,j,TRUE,常人,img/S_ambi40.png,square,Neutral,1,exp2,mismatch
2,2001,5,521.32,psychophysics,680,j,j,simultaneous,f,FALSE,常人,img/C_ambi40.png,circle,Neutral,0,exp2,match
2,2001,5,521.32,psychophysics,1084,j,j,simultaneous,j,TRUE,坏人,img/S_ambi40.png,square,Bad,1,exp2,mismatch
2,2001,5,521.32,psychophysics,1188,j,j,simultaneous,j,TRUE,好人,img/C_ambi40.png,circle,Good,1,exp2,mismatch
2,2001,5,521.32,psychophysics,957,j,j,simultaneous,j,TRUE,常人,img/T_ambi40.png,triangle,Neutral,1,exp2,mismatch
2,2001,5,521.32,psychophysics,857,f,f,simultaneous,f,TRUE,好人,img/S_ambi40.png,square,Good,1,exp2,match
2,2001,5,521.32,psychophysics,831,j,j,simultaneous,f,FALSE,好人,img/S_ambi40.png,square,Good,0,exp2,match
2,2001,5,521.32,psychophysics,856,f,f,simultaneous,f,TRUE,坏人,img/T_ambi40.png,triangle,Bad,1,exp2,match
2,2001,5,521.32,psychophysics,764,j,j,simultaneous,j,TRUE,好人,img/T_ambi40.png,triangle,Good,1,exp2,mismatch
2,2001,5,521.32,psychophysics,754,j,j,simultaneous,j,TRUE,好人,img/C_ambi40.png,circle,Good,1,exp2,mismatch
2,2001,5,521.32,psychophysics,631,f,f,simultaneous,f,TRUE,坏人,img/T_ambi40.png,triangle,Bad,1,exp2,match
2,2001,5,521.32,psychophysics,739,j,j,simultaneous,f,FALSE,常人,img/C_ambi40.png,circle,Neutral,0,exp2,match
2,2001,5,521.32,psychophysics,780,j,j,simultaneous,j,TRUE,常人,img/S_ambi40.png,square,Neutral,1,exp2,mismatch
2,2001,5,521.32,psychophysics,991,f,f,simultaneous,j,FALSE,好人,img/T_ambi40.png,triangle,Good,0,exp2,mismatch
2,2001,5,521.32,psychophysics,942,f,f,simultaneous,f,TRUE,坏人,img/T_ambi40.png,triangle,Bad,1,exp2,match
2,2001,5,521.32,psychophysics,1120,j,j,simultaneous,f,FALSE,好人,img/S_ambi40.png,square,Good,0,exp2,match
2,2001,5,521.32,psychophysics,851,j,j,simultaneous,f,FALSE,常人,img/C_ambi40.png,circle,Neutral,0,exp2,match
2,2001,5,521.32,psychophysics,862,j,j,simultaneous,j,TRUE,坏人,img/C_ambi40.png,circle,Bad,1,exp2,mismatch
2,2001,5,521.32,psychophysics,696,j,j,simultaneous,j,TRUE,常人,img/T_ambi40.png,triangle,Neutral,1,exp2,mismatch
2,2001,5,521.32,psychophysics,768,f,f,simultaneous,j,FALSE,坏人,img/S_ambi40.png,square,Bad,0,exp2,mismatch
2,2001,5,521.32,psychophysics,995,f,f,simultaneous,f,TRUE,好人,img/S_ambi40.png,square,Good,1,exp2,match
2,2001,5,521.32,psychophysics,747,f,f,simultaneous,f,TRUE,好人,img/S_ambi40.png,square,Good,1,exp2,match
2,2001,5,521.32,psychophysics,637,j,j,simultaneous,j,TRUE,常人,img/S_ambi40.png,square,Neutral,1,exp2,mismatch
2,2001,5,521.32,psychophysics,643,j,j,simultaneous,f,FALSE,常人,img/C_ambi40.png,circle,Neutral,0,exp2,match
2,2001,5,521.32,psychophysics,1022,f,f,simultaneous,j,FALSE,好人,img/T_ambi40.png,triangle,Good,0,exp2,mismatch
2,2001,5,521.32,psychophysics,669,f,f,simultaneous,f,TRUE,好人,img/S_ambi40.png,square,Good,1,exp2,match
2,2001,5,521.32,psychophysics,800,j,j,simultaneous,j,TRUE,好人,img/C_ambi40.png,circle,Good,1,exp2,mismatch
2,2001,5,521.32,psychophysics,1329,f,f,simultaneous,f,TRUE,坏人,img/T_ambi40.png,triangle,Bad,1,exp2,match
2,2001,5,521.32,psychophysics,889,j,j,simultaneous,j,TRUE,坏人,img/S_ambi40.png,square,Bad,1,exp2,mismatch
2,2001,5,521.32,psychophysics,729,j,j,simultaneous,j,TRUE,常人,img/T_ambi40.png,triangle,Neutral,1,exp2,mismatch
2,2001,5,521.32,psychophysics,602,j,j,simultaneous,f,FALSE,常人,img/C_ambi40.png,circle,Neutral,0,exp2,match
2,2001,5,521.32,psychophysics,1399,f,f,simultaneous,f,TRUE,坏人,img/T_ambi40.png,triangle,Bad,1,exp2,match
2,2001,5,521.32,psychophysics,822,j,j,simultaneous,j,TRUE,坏人,img/C_ambi40.png,circle,Bad,1,exp2,mismatch
2,2001,5,521.32,psychophysics,917,j,j,simultaneous,j,TRUE,好人,img/T_ambi40.png,triangle,Good,1,exp2,mismatch
2,2001,5,521.32,psychophysics,1096,j,j,simultaneous,j,TRUE,坏人,img/S_ambi40.png,square,Bad,1,exp2,mismatch
2,2001,5,521.32,psychophysics,757,f,f,simultaneous,f,TRUE,好人,img/S_ambi40.png,square,Good,1,exp2,match
2,2001,5,521.32,psychophysics,907,j,j,simultaneous,j,TRUE,常人,img/S_ambi40.png,square,Neutral,1,exp2,mismatch
2,2001,5,521.32,psychophysics,1257,j,j,simultaneous,j,TRUE,好人,img/C_ambi40.png,circle,Good,1,exp2,mismatch
2,2001,5,521.32,psychophysics,875,f,f,simultaneous,f,TRUE,坏人,img/T_ambi40.png,triangle,Bad,1,exp2,match
2,2001,5,521.32,psychophysics,909,f,f,simultaneous,f,TRUE,坏人,img/T_ambi40.png,triangle,Bad,1,exp2,match
2,2001,5,521.32,psychophysics,521,j,j,simultaneous,f,FALSE,常人,img/C_ambi40.png,circle,Neutral,0,exp2,match
2,2001,5,521.32,psychophysics,684,j,j,simultaneous,j,TRUE,坏人,img/C_ambi40.png,circle,Bad,1,exp2,mismatch
2,2001,5,521.32,psychophysics,916,j,j,simultaneous,j,TRUE,常人,img/T_ambi40.png,triangle,Neutral,1,exp2,mismatch
2,2001,5,521.32,psychophysics,772,f,f,simultaneous,f,TRUE,好人,img/S_ambi40.png,square,Good,1,exp2,match
2,2001,5,521.32,psychophysics,848,j,j,simultaneous,f,FALSE,常人,img/C_ambi40.png,circle,Neutral,0,exp2,match
2,2001,5,521.32,psychophysics,1006,j,j,simultaneous,j,TRUE,坏人,img/C_ambi40.png,circle,Bad,1,exp2,mismatch
2,2001,5,521.32,psychophysics,873,f,f,simultaneous,f,TRUE,坏人,img/T_ambi40.png,triangle,Bad,1,exp2,match
2,2001,5,521.32,psychophysics,671,j,j,simultaneous,j,TRUE,常人,img/T_ambi40.png,triangle,Neutral,1,exp2,mismatch
2,2001,5,521.32,psychophysics,669,j,j,simultaneous,f,FALSE,常人,img/C_ambi40.png,circle,Neutral,0,exp2,match
2,2001,5,521.32,psychophysics,647,f,f,simultaneous,f,TRUE,好人,img/S_ambi40.png,square,Good,1,exp2,match
2,2001,5,521.32,psychophysics,685,j,j,simultaneous,j,TRUE,常人,img/S_ambi40.png,square,Neutral,1,exp2,mismatch
2,2001,5,521.32,psychophysics,718,f,f,simultaneous,j,FALSE,好人,img/T_ambi40.png,triangle,Good,0,exp2,mismatch
2,2001,5,521.32,psychophysics,722,j,j,simultaneous,j,TRUE,坏人,img/S_ambi40.png,square,Bad,1,exp2,mismatch
2,2001,5,521.32,psychophysics,716,j,j,simultaneous,f,FALSE,常人,img/C_ambi40.png,circle,Neutral,0,exp2,match
2,2001,5,521.32,psychophysics,634,f,f,simultaneous,f,TRUE,好人,img/S_ambi40.png,square,Good,1,exp2,match
2,2001,5,521.32,psychophysics,833,j,j,simultaneous,j,TRUE,好人,img/C_ambi40.png,circle,Good,1,exp2,mismatch
2,2001,5,521.32,psychophysics,588,j,j,simultaneous,f,FALSE,坏人,img/T_ambi40.png,triangle,Bad,0,exp2,match
2,2001,5,521.32,psychophysics,648,j,j,simultaneous,f,FALSE,坏人,img/T_ambi40.png,triangle,Bad,0,exp2,match
2,2001,5,521.32,psychophysics,756,j,j,simultaneous,f,FALSE,常人,img/C_ambi40.png,circle,Neutral,0,exp2,match
2,2001,5,521.32,psychophysics,901,f,f,simultaneous,j,FALSE,坏人,img/C_ambi40.png,circle,Bad,0,exp2,mismatch
2,2001,5,521.32,psychophysics,681,f,f,simultaneous,f,TRUE,常人,img/C_ambi40.png,circle,Neutral,1,exp2,match
2,2001,5,521.32,psychophysics,743,f,f,simultaneous,f,TRUE,好人,img/S_ambi40.png,square,Good,1,exp2,match
2,2001,5,521.32,psychophysics,780,j,j,simultaneous,j,TRUE,好人,img/T_ambi40.png,triangle,Good,1,exp2,mismatch
2,2001,5,521.32,psychophysics,903,f,f,simultaneous,j,FALSE,好人,img/C_ambi40.png,circle,Good,0,exp2,mismatch
2,2001,5,521.32,psychophysics,1425,f,f,simultaneous,f,TRUE,好人,img/S_ambi40.png,square,Good,1,exp2,match
2,2001,5,521.32,psychophysics,878,j,j,simultaneous,j,TRUE,坏人,img/S_ambi40.png,square,Bad,1,exp2,mismatch
2,2001,5,521.32,psychophysics,792,f,f,simultaneous,f,TRUE,坏人,img/T_ambi40.png,triangle,Bad,1,exp2,match
2,2001,5,521.32,psychophysics,1031,j,j,simultaneous,j,TRUE,常人,img/S_ambi40.png,square,Neutral,1,exp2,mismatch
2,2001,5,521.32,psychophysics,1143,j,j,simultaneous,j,TRUE,常人,img/T_ambi40.png,triangle,Neutral,1,exp2,mismatch
2,2001,5,521.32,psychophysics,1038,j,j,simultaneous,j,TRUE,好人,img/T_ambi40.png,triangle,Good,1,exp2,mismatch
2,2001,5,521.32,psychophysics,739,f,f,simultaneous,f,TRUE,坏人,img/T_ambi40.png,triangle,Bad,1,exp2,match
2,2001,5,521.32,psychophysics,851,f,f,simultaneous,f,TRUE,坏人,img/T_ambi40.png,triangle,Bad,1,exp2,match
2,2001,5,521.32,psychophysics,1002,f,f,simultaneous,f,TRUE,常人,img/C_ambi40.png,circle,Neutral,1,exp2,match
2,2001,5,521.32,psychophysics,690,j,j,simultaneous,j,TRUE,坏人,img/C_ambi40.png,circle,Bad,1,exp2,mismatch
2,2001,5,521.32,psychophysics,1164,f,f,simultaneous,f,TRUE,好人,img/S_ambi40.png,square,Good,1,exp2,match
2,2001,5,521.32,psychophysics,899,f,f,simultaneous,f,TRUE,常人,img/C_ambi40.png,circle,Neutral,1,exp2,match
2,2001,5,521.32,psychophysics,809,j,j,simultaneous,j,TRUE,常人,img/S_ambi40.png,square,Neutral,1,exp2,mismatch
2,2001,5,521.32,psychophysics,798,j,j,simultaneous,j,TRUE,常人,img/T_ambi40.png,triangle,Neutral,1,exp2,mismatch
2,2001,5,521.32,psychophysics,687,f,f,simultaneous,j,FALSE,好人,img/C_ambi40.png,circle,Good,0,exp2,mismatch
2,2001,5,521.32,psychophysics,734,f,f,simultaneous,f,TRUE,好人,img/S_ambi40.png,square,Good,1,exp2,match
2,2001,5,521.32,psychophysics,870,j,j,simultaneous,j,TRUE,坏人,img/S_ambi40.png,square,Bad,1,exp2,mismatch
2,2001,5,521.32,psychophysics,556,f,f,simultaneous,j,FALSE,坏人,img/S_ambi40.png,square,Bad,0,exp2,mismatch
2,2001,5,521.32,psychophysics,791,f,f,simultaneous,f,TRUE,坏人,img/T_ambi40.png,triangle,Bad,1,exp2,match
2,2001,5,521.32,psychophysics,776,f,f,simultaneous,f,TRUE,坏人,img/T_ambi40.png,triangle,Bad,1,exp2,match
2,2001,5,521.32,psychophysics,611,j,j,simultaneous,j,TRUE,坏人,img/C_ambi40.png,circle,Bad,1,exp2,mismatch
2,2001,5,521.32,psychophysics,474,f,f,simultaneous,f,TRUE,常人,img/C_ambi40.png,circle,Neutral,1,exp2,match
2,2001,5,521.32,psychophysics,702,j,j,simultaneous,j,TRUE,好人,img/T_ambi40.png,triangle,Good,1,exp2,mismatch
2,2001,5,521.32,psychophysics,848,j,j,simultaneous,j,TRUE,常人,img/S_ambi40.png,square,Neutral,1,exp2,mismatch
2,2001,5,521.32,psychophysics,610,f,f,simultaneous,f,TRUE,好人,img/S_ambi40.png,square,Good,1,exp2,match
2,2001,5,521.32,psychophysics,670,j,j,simultaneous,f,FALSE,常人,img/C_ambi40.png,circle,Neutral,0,exp2,match
2,2001,5,521.32,psychophysics,993,j,j,simultaneous,j,TRUE,好人,img/C_ambi40.png,circle,Good,1,exp2,mismatch
2,2001,5,521.32,psychophysics,772,f,f,simultaneous,j,FALSE,常人,img/T_ambi40.png,triangle,Neutral,0,exp2,mismatch
2,2001,5,521.32,psychophysics,426,j,j,simultaneous,f,FALSE,好人,img/S_ambi40.png,square,Good,0,exp2,match
2,2001,5,521.32,psychophysics,797,f,f,simultaneous,f,TRUE,好人,img/S_ambi40.png,square,Good,1,exp2,match
2,2001,5,521.32,psychophysics,888,f,f,simultaneous,f,TRUE,坏人,img/T_ambi40.png,triangle,Bad,1,exp2,match
2,2001,5,521.32,psychophysics,796,j,j,simultaneous,j,TRUE,坏人,img/C_ambi40.png,circle,Bad,1,exp2,mismatch
2,2001,5,521.32,psychophysics,499,f,f,simultaneous,f,TRUE,常人,img/C_ambi40.png,circle,Neutral,1,exp2,match
2,2001,5,521.32,psychophysics,1433,f,f,simultaneous,f,TRUE,坏人,img/T_ambi40.png,triangle,Bad,1,exp2,match
2,2001,5,521.32,psychophysics,1221,j,j,simultaneous,j,TRUE,坏人,img/S_ambi40.png,square,Bad,1,exp2,mismatch
2,2001,5,521.32,psychophysics,964,j,j,simultaneous,f,FALSE,好人,img/S_ambi40.png,square,Good,0,exp2,match
2,2001,5,521.32,psychophysics,1255,j,j,simultaneous,j,TRUE,常人,img/T_ambi40.png,triangle,Neutral,1,exp2,mismatch
2,2001,5,521.32,psychophysics,1017,j,j,simultaneous,j,TRUE,好人,img/C_ambi40.png,circle,Good,1,exp2,mismatch
2,2001,5,521.32,psychophysics,879,j,j,simultaneous,j,TRUE,好人,img/T_ambi40.png,triangle,Good,1,exp2,mismatch
2,2001,5,521.32,psychophysics,833,j,j,simultaneous,j,TRUE,常人,img/S_ambi40.png,square,Neutral,1,exp2,mismatch
2,2001,5,521.32,psychophysics,648,j,j,simultaneous,f,FALSE,常人,img/C_ambi40.png,circle,Neutral,0,exp2,match
2,2001,5,521.32,psychophysics,827,j,j,simultaneous,j,TRUE,常人,img/T_ambi40.png,triangle,Neutral,1,exp2,mismatch
2,2001,5,521.32,psychophysics,737,j,j,simultaneous,j,TRUE,坏人,img/S_ambi40.png,square,Bad,1,exp2,mismatch
2,2001,5,521.32,psychophysics,822,f,f,simultaneous,f,TRUE,坏人,img/T_ambi40.png,triangle,Bad,1,exp2,match
2,2001,5,521.32,psychophysics,679,f,f,simultaneous,f,TRUE,好人,img/S_ambi40.png,square,Good,1,exp2,match
2,2001,5,521.32,psychophysics,914,j,j,simultaneous,j,TRUE,坏人,img/C_ambi40.png,circle,Bad,1,exp2,mismatch
2,2001,5,521.32,psychophysics,647,f,f,simultaneous,f,TRUE,坏人,img/T_ambi40.png,triangle,Bad,1,exp2,match
2,2001,5,521.32,psychophysics,561,j,j,simultaneous,j,TRUE,常人,img/S_ambi40.png,square,Neutral,1,exp2,mismatch
2,2001,5,521.32,psychophysics,288,f,f,simultaneous,f,TRUE,常人,img/C_ambi40.png,circle,Neutral,1,exp2,match
2,2001,5,521.32,psychophysics,210,j,j,simultaneous,j,TRUE,好人,img/C_ambi40.png,circle,Good,1,exp2,mismatch
2,2001,5,521.32,psychophysics,222,f,f,simultaneous,j,FALSE,好人,img/T_ambi40.png,triangle,Good,0,exp2,mismatch
2,2001,5,521.32,psychophysics,272,j,j,simultaneous,f,FALSE,好人,img/S_ambi40.png,square,Good,0,exp2,match
2,2001,5,521.32,psychophysics,1292,f,f,simultaneous,f,TRUE,好人,img/S_ambi40.png,square,Good,1,exp2,match
2,2001,5,521.32,psychophysics,1139,j,j,simultaneous,j,TRUE,好人,img/T_ambi40.png,triangle,Good,1,exp2,mismatch
2,2001,5,521.32,psychophysics,871,f,f,simultaneous,f,TRUE,坏人,img/T_ambi40.png,triangle,Bad,1,exp2,match
2,2001,5,521.32,psychophysics,1109,j,j,simultaneous,j,TRUE,常人,img/S_ambi40.png,square,Neutral,1,exp2,mismatch
2,2001,5,521.32,psychophysics,815,j,j,simultaneous,j,TRUE,常人,img/T_ambi40.png,triangle,Neutral,1,exp2,mismatch
2,2001,5,521.32,psychophysics,593,f,f,simultaneous,j,FALSE,好人,img/C_ambi40.png,circle,Good,0,exp2,mismatch
2,2001,5,521.32,psychophysics,671,f,f,simultaneous,f,TRUE,好人,img/S_ambi40.png,square,Good,1,exp2,match
2,2001,5,521.32,psychophysics,793,j,j,simultaneous,j,TRUE,坏人,img/S_ambi40.png,square,Bad,1,exp2,mismatch
2,2001,5,521.32,psychophysics,732,j,j,simultaneous,f,FALSE,常人,img/C_ambi40.png,circle,Neutral,0,exp2,match
2,2001,5,521.32,psychophysics,1183,j,j,simultaneous,f,FALSE,坏人,img/T_ambi40.png,triangle,Bad,0,exp2,match
2,2001,5,521.32,psychophysics,847,j,j,simultaneous,f,FALSE,常人,img/C_ambi40.png,circle,Neutral,0,exp2,match
2,2001,5,521.32,psychophysics,946,j,j,simultaneous,j,TRUE,坏人,img/C_ambi40.png,circle,Bad,1,exp2,mismatch
2,2001,5,521.32,psychophysics,752,f,f,simultaneous,j,FALSE,好人,img/T_ambi40.png,triangle,Good,0,exp2,mismatch
2,2001,5,521.32,psychophysics,1019,j,j,simultaneous,f,FALSE,坏人,img/T_ambi40.png,triangle,Bad,0,exp2,match
2,2001,5,521.32,psychophysics,576,f,f,simultaneous,j,FALSE,坏人,img/C_ambi40.png,circle,Bad,0,exp2,mismatch
2,2001,5,521.32,psychophysics,307,j,j,simultaneous,j,TRUE,坏人,img/S_ambi40.png,square,Bad,1,exp2,mismatch
2,2001,5,521.32,psychophysics,686,f,f,simultaneous,f,TRUE,好人,img/S_ambi40.png,square,Good,1,exp2,match
2,2001,5,521.32,psychophysics,738,f,f,simultaneous,j,FALSE,好人,img/C_ambi40.png,circle,Good,0,exp2,mismatch
2,2001,5,521.32,psychophysics,375,j,j,simultaneous,j,TRUE,常人,img/T_ambi40.png,triangle,Neutral,1,exp2,mismatch
2,2001,5,521.32,psychophysics,721,f,f,simultaneous,f,TRUE,好人,img/S_ambi40.png,square,Good,1,exp2,match
2,2001,5,521.32,psychophysics,775,j,j,simultaneous,f,FALSE,常人,img/C_ambi40.png,circle,Neutral,0,exp2,match
2,2001,5,521.32,psychophysics,668,j,j,simultaneous,j,TRUE,常人,img/S_ambi40.png,square,Neutral,1,exp2,mismatch
2,2001,5,521.32,psychophysics,752,f,f,simultaneous,f,TRUE,坏人,img/T_ambi40.png,triangle,Bad,1,exp2,match
2,2001,5,521.32,psychophysics,590,j,j,simultaneous,f,FALSE,常人,img/C_ambi40.png,circle,Neutral,0,exp2,match
2,2001,5,521.32,psychophysics,727,j,j,simultaneous,j,TRUE,坏人,img/C_ambi40.png,circle,Bad,1,exp2,mismatch
2,2001,5,521.32,psychophysics,528,f,f,simultaneous,f,TRUE,好人,img/S_ambi40.png,square,Good,1,exp2,match
2,2001,5,521.32,psychophysics,671,j,j,simultaneous,j,TRUE,好人,img/T_ambi40.png,triangle,Good,1,exp2,mismatch
2,2001,5,521.32,psychophysics,791,j,j,simultaneous,j,TRUE,常人,img/S_ambi40.png,square,Neutral,1,exp2,mismatch
2,2001,5,521.32,psychophysics,641,j,j,simultaneous,f,FALSE,常人,img/C_ambi40.png,circle,Neutral,0,exp2,match
2,2001,5,521.32,psychophysics,363,f,f,simultaneous,j,FALSE,好人,img/C_ambi40.png,circle,Good,0,exp2,mismatch
2,2001,5,521.32,psychophysics,761,f,f,simultaneous,f,TRUE,坏人,img/T_ambi40.png,triangle,Bad,1,exp2,match
2,2001,5,521.32,psychophysics,740,j,j,simultaneous,j,TRUE,常人,img/T_ambi40.png,triangle,Neutral,1,exp2,mismatch
2,2001,5,521.32,psychophysics,503,f,f,simultaneous,f,TRUE,好人,img/S_ambi40.png,square,Good,1,exp2,match
2,2001,5,521.32,psychophysics,960,f,f,simultaneous,f,TRUE,常人,img/C_ambi40.png,circle,Neutral,1,exp2,match
2,2001,5,521.32,psychophysics,762,f,f,simultaneous,f,TRUE,坏人,img/T_ambi40.png,triangle,Bad,1,exp2,match
2,2001,5,521.32,psychophysics,904,j,j,simultaneous,j,TRUE,坏人,img/S_ambi40.png,square,Bad,1,exp2,mismatch
2,2001,5,521.32,psychophysics,944,j,j,simultaneous,j,TRUE,常人,img/T_ambi40.png,triangle,Neutral,1,exp2,mismatch
2,2001,5,521.32,psychophysics,760,j,j,simultaneous,f,FALSE,常人,img/C_ambi40.png,circle,Neutral,0,exp2,match
2,2001,5,521.32,psychophysics,839,f,f,simultaneous,f,TRUE,坏人,img/T_ambi40.png,triangle,Bad,1,exp2,match
2,2001,5,521.32,psychophysics,697,f,f,simultaneous,f,TRUE,坏人,img/T_ambi40.png,triangle,Bad,1,exp2,match
2,2001,5,521.32,psychophysics,891,j,j,simultaneous,j,TRUE,常人,img/S_ambi40.png,square,Neutral,1,exp2,mismatch
2,2001,5,521.32,psychophysics,887,f,f,simultaneous,f,TRUE,好人,img/S_ambi40.png,square,Good,1,exp2,match
2,2001,5,521.32,psychophysics,916,j,j,simultaneous,j,TRUE,好人,img/C_ambi40.png,circle,Good,1,exp2,mismatch
2,2001,5,521.32,psychophysics,863,j,j,simultaneous,j,TRUE,坏人,img/C_ambi40.png,circle,Bad,1,exp2,mismatch
2,2001,5,521.32,psychophysics,1068,f,f,simultaneous,f,TRUE,好人,img/S_ambi40.png,square,Good,1,exp2,match
2,2001,5,521.32,psychophysics,812,j,j,simultaneous,j,TRUE,坏人,img/S_ambi40.png,square,Bad,1,exp2,mismatch
2,2001,5,521.32,psychophysics,1215,f,f,simultaneous,f,TRUE,常人,img/C_ambi40.png,circle,Neutral,1,exp2,match
2,2001,5,521.32,psychophysics,1082,j,j,simultaneous,j,TRUE,好人,img/T_ambi40.png,triangle,Good,1,exp2,mismatch
2,2001,5,521.32,psychophysics,874,j,j,simultaneous,j,TRUE,坏人,img/C_ambi40.png,circle,Bad,1,exp2,mismatch
2,2001,5,521.32,psychophysics,707,f,f,simultaneous,f,TRUE,坏人,img/T_ambi40.png,triangle,Bad,1,exp2,match
2,2001,5,521.32,psychophysics,777,j,j,simultaneous,j,TRUE,常人,img/S_ambi40.png,square,Neutral,1,exp2,mismatch
2,2001,5,521.32,psychophysics,876,f,f,simultaneous,f,TRUE,常人,img/C_ambi40.png,circle,Neutral,1,exp2,match
2,2001,5,521.32,psychophysics,747,j,j,simultaneous,j,TRUE,常人,img/T_ambi40.png,triangle,Neutral,1,exp2,mismatch
2,2001,5,521.32,psychophysics,722,j,j,simultaneous,f,FALSE,坏人,img/T_ambi40.png,triangle,Bad,0,exp2,match
2,2001,5,521.32,psychophysics,1167,f,f,simultaneous,j,FALSE,好人,img/C_ambi40.png,circle,Good,0,exp2,mismatch
2,2001,5,521.32,psychophysics,752,j,j,simultaneous,j,TRUE,坏人,img/S_ambi40.png,square,Bad,1,exp2,mismatch
2,2001,5,521.32,psychophysics,1302,f,f,simultaneous,f,TRUE,好人,img/S_ambi40.png,square,Good,1,exp2,match
2,2001,5,521.32,psychophysics,838,j,j,simultaneous,j,TRUE,好人,img/T_ambi40.png,triangle,Good,1,exp2,mismatch
2,2001,5,521.32,psychophysics,1000,f,f,simultaneous,f,TRUE,常人,img/C_ambi40.png,circle,Neutral,1,exp2,match
2,2001,5,521.32,psychophysics,668,f,f,simultaneous,f,TRUE,好人,img/S_ambi40.png,square,Good,1,exp2,match
2,2001,5,521.32,psychophysics,830,f,f,simultaneous,f,TRUE,常人,img/C_ambi40.png,circle,Neutral,1,exp2,match
2,2001,5,521.32,psychophysics,855,f,f,simultaneous,f,TRUE,坏人,img/T_ambi40.png,triangle,Bad,1,exp2,match
2,2001,5,521.32,psychophysics,1039,j,j,simultaneous,j,TRUE,坏人,img/C_ambi40.png,circle,Bad,1,exp2,mismatch
2,2001,5,521.32,psychophysics,871,f,f,simultaneous,f,TRUE,好人,img/S_ambi40.png,square,Good,1,exp2,match
2,2001,5,521.32,psychophysics,753,j,j,simultaneous,j,TRUE,常人,img/T_ambi40.png,triangle,Neutral,1,exp2,mismatch
2,2001,5,521.32,psychophysics,1196,j,j,simultaneous,j,TRUE,坏人,img/S_ambi40.png,square,Bad,1,exp2,mismatch
2,2001,5,521.32,psychophysics,749,f,f,simultaneous,f,TRUE,常人,img/C_ambi40.png,circle,Neutral,1,exp2,match
2,2001,5,521.32,psychophysics,779,f,f,simultaneous,f,TRUE,坏人,img/T_ambi40.png,triangle,Bad,1,exp2,match
2,2001,5,521.32,psychophysics,726,j,j,simultaneous,j,TRUE,好人,img/T_ambi40.png,triangle,Good,1,exp2,mismatch
2,2001,5,521.32,psychophysics,618,f,f,simultaneous,f,TRUE,好人,img/S_ambi40.png,square,Good,1,exp2,match
2,2001,5,521.32,psychophysics,808,j,j,simultaneous,j,TRUE,常人,img/S_ambi40.png,square,Neutral,1,exp2,mismatch
2,2001,5,521.32,psychophysics,780,f,f,simultaneous,j,FALSE,好人,img/C_ambi40.png,circle,Good,0,exp2,mismatch
2,2001,5,521.32,psychophysics,1034,j,j,image_first,j,TRUE,好人,img/T_ambi40.png,triangle,Good,1,exp2,mismatch
2,2001,5,521.32,psychophysics,849,f,f,image_first,f,TRUE,好人,img/S_ambi40.png,square,Good,1,exp2,match
2,2001,5,521.32,psychophysics,815,j,j,image_first,j,TRUE,坏人,img/S_ambi40.png,square,Bad,1,exp2,mismatch
2,2001,5,521.32,psychophysics,1056,j,j,image_first,j,TRUE,好人,img/C_ambi40.png,circle,Good,1,exp2,mismatch
2,2001,5,521.32,psychophysics,916,f,f,image_first,f,TRUE,常人,img/C_ambi40.png,circle,Neutral,1,exp2,match
2,2001,5,521.32,psychophysics,868,f,f,image_first,f,TRUE,坏人,img/T_ambi40.png,triangle,Bad,1,exp2,match
2,2001,5,521.32,psychophysics,679,j,j,image_first,j,TRUE,常人,img/S_ambi40.png,square,Neutral,1,exp2,mismatch
2,2001,5,521.32,psychophysics,1155,j,j,image_first,j,TRUE,坏人,img/C_ambi40.png,circle,Bad,1,exp2,mismatch
2,2001,5,521.32,psychophysics,1336,j,j,image_first,j,TRUE,常人,img/T_ambi40.png,triangle,Neutral,1,exp2,mismatch
2,2001,5,521.32,psychophysics,678,f,f,image_first,f,TRUE,坏人,img/T_ambi40.png,triangle,Bad,1,exp2,match
2,2001,5,521.32,psychophysics,671,j,j,image_first,f,FALSE,常人,img/C_ambi40.png,circle,Neutral,0,exp2,match
2,2001,5,521.32,psychophysics,984,j,j,image_first,j,TRUE,坏人,img/S_ambi40.png,square,Bad,1,exp2,mismatch
2,2001,5,521.32,psychophysics,859,f,f,image_first,f,TRUE,好人,img/S_ambi40.png,square,Good,1,exp2,match
2,2001,5,521.32,psychophysics,720,f,f,image_first,f,TRUE,坏人,img/T_ambi40.png,triangle,Bad,1,exp2,match
2,2001,5,521.32,psychophysics,686,f,f,image_first,f,TRUE,坏人,img/T_ambi40.png,triangle,Bad,1,exp2,match
2,2001,5,521.32,psychophysics,635,j,j,image_first,j,TRUE,常人,img/T_ambi40.png,triangle,Neutral,1,exp2,mismatch
2,2001,5,521.32,psychophysics,1143,j,j,image_first,j,TRUE,好人,img/T_ambi40.png,triangle,Good,1,exp2,mismatch
2,2001,5,521.32,psychophysics,739,f,f,image_first,f,TRUE,常人,img/C_ambi40.png,circle,Neutral,1,exp2,match
2,2001,5,521.32,psychophysics,843,j,j,image_first,j,TRUE,好人,img/C_ambi40.png,circle,Good,1,exp2,mismatch
2,2001,5,521.32,psychophysics,859,f,f,image_first,f,TRUE,常人,img/C_ambi40.png,circle,Neutral,1,exp2,match
2,2001,5,521.32,psychophysics,711,f,f,image_first,f,TRUE,好人,img/S_ambi40.png,square,Good,1,exp2,match
2,2001,5,521.32,psychophysics,882,j,j,image_first,j,TRUE,常人,img/S_ambi40.png,square,Neutral,1,exp2,mismatch
2,2001,5,521.32,psychophysics,1074,j,j,image_first,j,TRUE,坏人,img/C_ambi40.png,circle,Bad,1,exp2,mismatch
2,2001,5,521.32,psychophysics,658,f,f,image_first,f,TRUE,好人,img/S_ambi40.png,square,Good,1,exp2,match
2,2001,5,521.32,psychophysics,1426,f,f,image_first,f,TRUE,常人,img/C_ambi40.png,circle,Neutral,1,exp2,match
2,2001,5,521.32,psychophysics,647,f,f,image_first,f,TRUE,好人,img/S_ambi40.png,square,Good,1,exp2,match
2,2001,5,521.32,psychophysics,813,j,j,image_first,j,TRUE,常人,img/S_ambi40.png,square,Neutral,1,exp2,mismatch
2,2001,5,521.32,psychophysics,902,f,f,image_first,f,TRUE,常人,img/C_ambi40.png,circle,Neutral,1,exp2,match
2,2001,5,521.32,psychophysics,630,f,f,image_first,f,TRUE,坏人,img/T_ambi40.png,triangle,Bad,1,exp2,match
2,2001,5,521.32,psychophysics,848,j,j,image_first,j,TRUE,常人,img/T_ambi40.png,triangle,Neutral,1,exp2,mismatch
2,2001,5,521.32,psychophysics,927,f,f,image_first,j,FALSE,坏人,img/S_ambi40.png,square,Bad,0,exp2,mismatch
2,2001,5,521.32,psychophysics,843,j,j,image_first,j,TRUE,坏人,img/C_ambi40.png,circle,Bad,1,exp2,mismatch
2,2001,5,521.32,psychophysics,784,j,j,image_first,j,TRUE,好人,img/T_ambi40.png,triangle,Good,1,exp2,mismatch
2,2001,5,521.32,psychophysics,782,j,j,image_first,j,TRUE,好人,img/C_ambi40.png,circle,Good,1,exp2,mismatch
2,2001,5,521.32,psychophysics,695,f,f,image_first,f,TRUE,坏人,img/T_ambi40.png,triangle,Bad,1,exp2,match
2,2001,5,521.32,psychophysics,803,j,j,image_first,j,TRUE,常人,img/S_ambi40.png,square,Neutral,1,exp2,mismatch
2,2001,5,521.32,psychophysics,807,j,j,image_first,j,TRUE,坏人,img/C_ambi40.png,circle,Bad,1,exp2,mismatch
2,2001,5,521.32,psychophysics,796,f,f,image_first,f,TRUE,坏人,img/T_ambi40.png,triangle,Bad,1,exp2,match
2,2001,5,521.32,psychophysics,921,j,j,image_first,j,TRUE,好人,img/T_ambi40.png,triangle,Good,1,exp2,mismatch
2,2001,5,521.32,psychophysics,784,j,j,image_first,j,TRUE,常人,img/T_ambi40.png,triangle,Neutral,1,exp2,mismatch
2,2001,5,521.32,psychophysics,834,j,j,image_first,j,TRUE,坏人,img/S_ambi40.png,square,Bad,1,exp2,mismatch
2,2001,5,521.32,psychophysics,588,f,f,image_first,f,TRUE,坏人,img/T_ambi40.png,triangle,Bad,1,exp2,match
2,2001,5,521.32,psychophysics,825,j,j,image_first,f,FALSE,好人,img/S_ambi40.png,square,Good,0,exp2,match
2,2001,5,521.32,psychophysics,755,f,f,image_first,f,TRUE,常人,img/C_ambi40.png,circle,Neutral,1,exp2,match
2,2001,5,521.32,psychophysics,651,f,f,image_first,f,TRUE,好人,img/S_ambi40.png,square,Good,1,exp2,match
2,2001,5,521.32,psychophysics,709,f,f,image_first,f,TRUE,常人,img/C_ambi40.png,circle,Neutral,1,exp2,match
2,2001,5,521.32,psychophysics,729,j,j,image_first,j,TRUE,好人,img/C_ambi40.png,circle,Good,1,exp2,mismatch
2,2001,5,521.32,psychophysics,738,f,f,image_first,f,TRUE,常人,img/C_ambi40.png,circle,Neutral,1,exp2,match
2,2001,5,521.32,psychophysics,676,f,f,image_first,f,TRUE,常人,img/C_ambi40.png,circle,Neutral,1,exp2,match
2,2001,5,521.32,psychophysics,841,j,j,image_first,j,TRUE,坏人,img/S_ambi40.png,square,Bad,1,exp2,mismatch
2,2001,5,521.32,psychophysics,658,f,f,image_first,f,TRUE,好人,img/S_ambi40.png,square,Good,1,exp2,match
2,2001,5,521.32,psychophysics,714,j,j,image_first,j,TRUE,常人,img/T_ambi40.png,triangle,Neutral,1,exp2,mismatch
2,2001,5,521.32,psychophysics,1108,j,j,image_first,j,TRUE,坏人,img/C_ambi40.png,circle,Bad,1,exp2,mismatch
2,2001,5,521.32,psychophysics,613,f,f,image_first,f,TRUE,坏人,img/T_ambi40.png,triangle,Bad,1,exp2,match
2,2001,5,521.32,psychophysics,722,j,j,image_first,j,TRUE,常人,img/S_ambi40.png,square,Neutral,1,exp2,mismatch
2,2001,5,521.32,psychophysics,712,f,f,image_first,j,FALSE,好人,img/C_ambi40.png,circle,Good,0,exp2,mismatch
2,2001,5,521.32,psychophysics,656,f,f,image_first,f,TRUE,坏人,img/T_ambi40.png,triangle,Bad,1,exp2,match
2,2001,5,521.32,psychophysics,861,f,f,image_first,f,TRUE,好人,img/S_ambi40.png,square,Good,1,exp2,match
2,2001,5,521.32,psychophysics,846,j,j,image_first,j,TRUE,好人,img/T_ambi40.png,triangle,Good,1,exp2,mismatch
2,2001,5,521.32,psychophysics,867,j,j,image_first,j,TRUE,常人,img/S_ambi40.png,square,Neutral,1,exp2,mismatch
2,2001,5,521.32,psychophysics,717,j,j,image_first,j,TRUE,常人,img/T_ambi40.png,triangle,Neutral,1,exp2,mismatch
2,2001,5,521.32,psychophysics,559,f,f,image_first,f,TRUE,好人,img/S_ambi40.png,square,Good,1,exp2,match
2,2001,5,521.32,psychophysics,644,j,j,image_first,j,TRUE,好人,img/T_ambi40.png,triangle,Good,1,exp2,mismatch
2,2001,5,521.32,psychophysics,788,f,f,image_first,f,TRUE,坏人,img/T_ambi40.png,triangle,Bad,1,exp2,match
2,2001,5,521.32,psychophysics,762,j,j,image_first,f,FALSE,常人,img/C_ambi40.png,circle,Neutral,0,exp2,match
2,2001,5,521.32,psychophysics,726,j,j,image_first,j,TRUE,坏人,img/C_ambi40.png,circle,Bad,1,exp2,mismatch
2,2001,5,521.32,psychophysics,618,f,f,image_first,f,TRUE,坏人,img/T_ambi40.png,triangle,Bad,1,exp2,match
2,2001,5,521.32,psychophysics,789,j,j,image_first,j,TRUE,坏人,img/S_ambi40.png,square,Bad,1,exp2,mismatch
2,2001,5,521.32,psychophysics,1003,f,f,image_first,f,TRUE,常人,img/C_ambi40.png,circle,Neutral,1,exp2,match
2,2001,5,521.32,psychophysics,840,j,j,image_first,j,TRUE,好人,img/C_ambi40.png,circle,Good,1,exp2,mismatch
2,2001,5,521.32,psychophysics,1198,f,f,image_first,f,TRUE,好人,img/S_ambi40.png,square,Good,1,exp2,match
2,2001,5,521.32,psychophysics,827,j,j,image_first,j,TRUE,常人,img/T_ambi40.png,triangle,Neutral,1,exp2,mismatch
2,2001,5,521.32,psychophysics,1278,f,f,image_first,f,TRUE,坏人,img/T_ambi40.png,triangle,Bad,1,exp2,match
2,2001,5,521.32,psychophysics,885,j,j,image_first,j,TRUE,好人,img/T_ambi40.png,triangle,Good,1,exp2,mismatch
2,2001,5,521.32,psychophysics,788,f,f,image_first,f,TRUE,好人,img/S_ambi40.png,square,Good,1,exp2,match
2,2001,5,521.32,psychophysics,1001,f,f,image_first,j,FALSE,坏人,img/S_ambi40.png,square,Bad,0,exp2,mismatch
2,2001,5,521.32,psychophysics,796,j,j,image_first,j,TRUE,常人,img/S_ambi40.png,square,Neutral,1,exp2,mismatch
2,2001,5,521.32,psychophysics,1191,f,f,image_first,f,TRUE,好人,img/S_ambi40.png,square,Good,1,exp2,match
2,2001,5,521.32,psychophysics,955,j,j,image_first,j,TRUE,坏人,img/C_ambi40.png,circle,Bad,1,exp2,mismatch
2,2001,5,521.32,psychophysics,935,f,f,image_first,f,TRUE,常人,img/C_ambi40.png,circle,Neutral,1,exp2,match
2,2001,5,521.32,psychophysics,796,f,f,image_first,f,TRUE,坏人,img/T_ambi40.png,triangle,Bad,1,exp2,match
2,2001,5,521.32,psychophysics,820,j,j,image_first,f,FALSE,常人,img/C_ambi40.png,circle,Neutral,0,exp2,match
2,2001,5,521.32,psychophysics,912,j,j,image_first,j,TRUE,好人,img/T_ambi40.png,triangle,Good,1,exp2,mismatch
2,2001,5,521.32,psychophysics,666,f,f,image_first,f,TRUE,坏人,img/T_ambi40.png,triangle,Bad,1,exp2,match
2,2001,5,521.32,psychophysics,709,f,f,image_first,j,FALSE,好人,img/C_ambi40.png,circle,Good,0,exp2,mismatch
2,2001,5,521.32,psychophysics,584,f,f,image_first,f,TRUE,坏人,img/T_ambi40.png,triangle,Bad,1,exp2,match
2,2001,5,521.32,psychophysics,754,j,j,image_first,j,TRUE,常人,img/S_ambi40.png,square,Neutral,1,exp2,mismatch
2,2001,5,521.32,psychophysics,844,f,f,image_first,f,TRUE,好人,img/S_ambi40.png,square,Good,1,exp2,match
2,2001,5,521.32,psychophysics,1108,j,j,image_first,j,TRUE,坏人,img/S_ambi40.png,square,Bad,1,exp2,mismatch
2,2001,5,521.32,psychophysics,905,f,f,image_first,f,TRUE,常人,img/C_ambi40.png,circle,Neutral,1,exp2,match
2,2001,5,521.32,psychophysics,662,j,j,image_first,j,TRUE,坏人,img/C_ambi40.png,circle,Bad,1,exp2,mismatch
2,2001,5,521.32,psychophysics,844,f,f,image_first,f,TRUE,好人,img/S_ambi40.png,square,Good,1,exp2,match
2,2001,5,521.32,psychophysics,992,f,f,image_first,f,TRUE,常人,img/C_ambi40.png,circle,Neutral,1,exp2,match
2,2001,5,521.32,psychophysics,793,j,j,image_first,j,TRUE,常人,img/T_ambi40.png,triangle,Neutral,1,exp2,mismatch
2,2001,5,521.32,psychophysics,1157,f,f,image_first,j,FALSE,坏人,img/C_ambi40.png,circle,Bad,0,exp2,mismatch
2,2001,5,521.32,psychophysics,861,j,j,image_first,j,TRUE,好人,img/T_ambi40.png,triangle,Good,1,exp2,mismatch
2,2001,5,521.32,psychophysics,653,f,f,image_first,f,TRUE,常人,img/C_ambi40.png,circle,Neutral,1,exp2,match
2,2001,5,521.32,psychophysics,657,j,j,image_first,j,TRUE,好人,img/C_ambi40.png,circle,Good,1,exp2,mismatch
2,2001,5,521.32,psychophysics,1175,j,j,image_first,j,TRUE,常人,img/T_ambi40.png,triangle,Neutral,1,exp2,mismatch
2,2001,5,521.32,psychophysics,745,j,j,image_first,j,TRUE,常人,img/S_ambi40.png,square,Neutral,1,exp2,mismatch
2,2001,5,521.32,psychophysics,608,j,j,image_first,f,FALSE,常人,img/C_ambi40.png,circle,Neutral,0,exp2,match
2,2001,5,521.32,psychophysics,666,f,f,image_first,f,TRUE,坏人,img/T_ambi40.png,triangle,Bad,1,exp2,match
2,2001,5,521.32,psychophysics,847,f,f,image_first,f,TRUE,好人,img/S_ambi40.png,square,Good,1,exp2,match
2,2001,5,521.32,psychophysics,595,f,f,image_first,f,TRUE,好人,img/S_ambi40.png,square,Good,1,exp2,match
2,2001,5,521.32,psychophysics,722,f,f,image_first,f,TRUE,坏人,img/T_ambi40.png,triangle,Bad,1,exp2,match
2,2001,5,521.32,psychophysics,1091,j,j,image_first,j,TRUE,坏人,img/S_ambi40.png,square,Bad,1,exp2,mismatch
2,2001,5,521.32,psychophysics,590,f,f,image_first,f,TRUE,坏人,img/T_ambi40.png,triangle,Bad,1,exp2,match
2,2001,5,521.32,psychophysics,824,f,f,image_first,f,TRUE,常人,img/C_ambi40.png,circle,Neutral,1,exp2,match
2,2001,5,521.32,psychophysics,972,f,f,image_first,j,FALSE,坏人,img/C_ambi40.png,circle,Bad,0,exp2,mismatch
2,2001,5,521.32,psychophysics,879,j,j,image_first,j,TRUE,好人,img/C_ambi40.png,circle,Good,1,exp2,mismatch
2,2001,5,521.32,psychophysics,1097,f,f,image_first,f,TRUE,好人,img/S_ambi40.png,square,Good,1,exp2,match
2,2001,5,521.32,psychophysics,631,j,j,image_first,j,TRUE,好人,img/T_ambi40.png,triangle,Good,1,exp2,mismatch
2,2001,5,521.32,psychophysics,787,f,f,image_first,f,TRUE,常人,img/C_ambi40.png,circle,Neutral,1,exp2,match
2,2001,5,521.32,psychophysics,617,j,j,image_first,j,TRUE,常人,img/S_ambi40.png,square,Neutral,1,exp2,mismatch
2,2001,5,521.32,psychophysics,552,f,f,image_first,f,TRUE,好人,img/S_ambi40.png,square,Good,1,exp2,match
2,2001,5,521.32,psychophysics,627,j,j,image_first,f,FALSE,坏人,img/T_ambi40.png,triangle,Bad,0,exp2,match
2,2001,5,521.32,psychophysics,720,j,j,image_first,j,TRUE,坏人,img/S_ambi40.png,square,Bad,1,exp2,mismatch
2,2001,5,521.32,psychophysics,735,j,j,image_first,j,TRUE,常人,img/T_ambi40.png,triangle,Neutral,1,exp2,mismatch
2,2001,5,521.32,psychophysics,537,f,f,image_first,f,TRUE,好人,img/S_ambi40.png,square,Good,1,exp2,match
2,2001,5,521.32,psychophysics,789,f,f,image_first,f,TRUE,坏人,img/T_ambi40.png,triangle,Bad,1,exp2,match
2,2001,5,521.32,psychophysics,668,j,j,image_first,j,TRUE,坏人,img/S_ambi40.png,square,Bad,1,exp2,mismatch
2,2001,5,521.32,psychophysics,735,f,f,image_first,j,FALSE,常人,img/T_ambi40.png,triangle,Neutral,0,exp2,mismatch
2,2001,5,521.32,psychophysics,795,j,j,image_first,j,TRUE,常人,img/S_ambi40.png,square,Neutral,1,exp2,mismatch
2,2001,5,521.32,psychophysics,873,f,f,image_first,f,TRUE,常人,img/C_ambi40.png,circle,Neutral,1,exp2,match
2,2001,5,521.32,psychophysics,834,j,j,image_first,j,TRUE,好人,img/C_ambi40.png,circle,Good,1,exp2,mismatch
2,2001,5,521.32,psychophysics,511,f,f,image_first,f,TRUE,好人,img/S_ambi40.png,square,Good,1,exp2,match
2,2001,5,521.32,psychophysics,633,j,j,image_first,j,TRUE,坏人,img/C_ambi40.png,circle,Bad,1,exp2,mismatch
2,2001,5,521.32,psychophysics,692,f,f,image_first,j,FALSE,好人,img/T_ambi40.png,triangle,Good,0,exp2,mismatch
2,2001,5,521.32,psychophysics,869,f,f,image_first,f,TRUE,坏人,img/T_ambi40.png,triangle,Bad,1,exp2,match
2,2001,5,521.32,psychophysics,938,f,f,image_first,f,TRUE,常人,img/C_ambi40.png,circle,Neutral,1,exp2,match
2,2001,5,521.32,psychophysics,743,f,f,image_first,f,TRUE,坏人,img/T_ambi40.png,triangle,Bad,1,exp2,match
2,2001,5,521.32,psychophysics,752,f,f,image_first,f,TRUE,常人,img/C_ambi40.png,circle,Neutral,1,exp2,match
2,2001,5,521.32,psychophysics,1327,f,f,image_first,f,TRUE,坏人,img/T_ambi40.png,triangle,Bad,1,exp2,match
2,2001,5,521.32,psychophysics,742,f,f,image_first,f,TRUE,好人,img/S_ambi40.png,square,Good,1,exp2,match
2,2001,5,521.32,psychophysics,655,f,f,image_first,j,FALSE,好人,img/T_ambi40.png,triangle,Good,0,exp2,mismatch
2,2001,5,521.32,psychophysics,987,j,j,image_first,j,TRUE,常人,img/S_ambi40.png,square,Neutral,1,exp2,mismatch
2,2001,5,521.32,psychophysics,769,j,j,image_first,j,TRUE,常人,img/T_ambi40.png,triangle,Neutral,1,exp2,mismatch
2,2001,5,521.32,psychophysics,677,j,j,image_first,j,TRUE,好人,img/C_ambi40.png,circle,Good,1,exp2,mismatch
2,2001,5,521.32,psychophysics,749,j,j,image_first,j,TRUE,坏人,img/C_ambi40.png,circle,Bad,1,exp2,mismatch
2,2001,5,521.32,psychophysics,789,j,j,image_first,j,TRUE,坏人,img/S_ambi40.png,square,Bad,1,exp2,mismatch
2,2001,5,521.32,psychophysics,734,j,j,image_first,f,FALSE,常人,img/C_ambi40.png,circle,Neutral,0,exp2,match
2,2001,5,521.32,psychophysics,679,f,f,image_first,j,FALSE,坏人,img/C_ambi40.png,circle,Bad,0,exp2,mismatch
2,2001,5,521.32,psychophysics,188,j,j,image_first,j,TRUE,好人,img/T_ambi40.png,triangle,Good,1,exp2,mismatch
2,2001,5,521.32,psychophysics,420,f,f,image_first,j,FALSE,常人,img/S_ambi40.png,square,Neutral,0,exp2,mismatch
2,2001,5,521.32,psychophysics,135,f,f,image_first,f,TRUE,好人,img/S_ambi40.png,square,Good,1,exp2,match
2,2001,5,521.32,psychophysics,138,j,j,image_first,f,FALSE,常人,img/C_ambi40.png,circle,Neutral,0,exp2,match
2,2001,5,521.32,psychophysics,436,j,j,image_first,j,TRUE,常人,img/T_ambi40.png,triangle,Neutral,1,exp2,mismatch
2,2001,5,521.32,psychophysics,791,j,j,image_first,f,FALSE,好人,img/S_ambi40.png,square,Good,0,exp2,match
2,2001,5,521.32,psychophysics,222,j,j,image_first,f,FALSE,坏人,img/T_ambi40.png,triangle,Bad,0,exp2,match
2,2001,5,521.32,psychophysics,62,j,j,image_first,f,FALSE,坏人,img/T_ambi40.png,triangle,Bad,0,exp2,match
2,2001,5,521.32,psychophysics,311,j,j,image_first,j,TRUE,坏人,img/S_ambi40.png,square,Bad,1,exp2,mismatch
2,2001,5,521.32,psychophysics,318,j,j,image_first,f,FALSE,好人,img/S_ambi40.png,square,Good,0,exp2,match
2,2001,5,521.32,psychophysics,131,j,j,image_first,j,TRUE,常人,img/S_ambi40.png,square,Neutral,1,exp2,mismatch
2,2001,5,521.32,psychophysics,212,j,j,image_first,f,FALSE,坏人,img/T_ambi40.png,triangle,Bad,0,exp2,match
2,2001,5,521.32,psychophysics,155,j,j,image_first,f,FALSE,好人,img/S_ambi40.png,square,Good,0,exp2,match
2,2001,5,521.32,psychophysics,366,j,j,image_first,f,FALSE,常人,img/C_ambi40.png,circle,Neutral,0,exp2,match
2,2001,5,521.32,psychophysics,428,f,f,image_first,f,TRUE,常人,img/C_ambi40.png,circle,Neutral,1,exp2,match
2,2001,5,521.32,psychophysics,125,f,f,image_first,j,FALSE,好人,img/C_ambi40.png,circle,Good,0,exp2,mismatch
2,2001,5,521.32,psychophysics,245,f,f,image_first,j,FALSE,好人,img/T_ambi40.png,triangle,Good,0,exp2,mismatch
2,2001,5,521.32,psychophysics,181,f,f,image_first,j,FALSE,坏人,img/C_ambi40.png,circle,Bad,0,exp2,mismatch
2,2001,5,521.32,psychophysics,139,f,f,image_first,j,FALSE,常人,img/T_ambi40.png,triangle,Neutral,0,exp2,mismatch
2,2001,5,521.32,psychophysics,369,f,f,image_first,j,FALSE,常人,img/S_ambi40.png,square,Neutral,0,exp2,mismatch
2,2001,5,521.32,psychophysics,124,j,j,image_first,j,TRUE,好人,img/C_ambi40.png,circle,Good,1,exp2,mismatch
2,2001,5,521.32,psychophysics,408,j,j,image_first,j,TRUE,坏人,img/S_ambi40.png,square,Bad,1,exp2,mismatch
2,2001,5,521.32,psychophysics,851,f,f,image_first,j,FALSE,好人,img/T_ambi40.png,triangle,Good,0,exp2,mismatch
2,2001,5,521.32,psychophysics,359,f,f,image_first,f,TRUE,常人,img/C_ambi40.png,circle,Neutral,1,exp2,match
2,2001,5,521.32,psychophysics,2,j,j,image_first,j,TRUE,常人,img/T_ambi40.png,triangle,Neutral,1,exp2,mismatch
2,2001,5,521.32,psychophysics,659,f,f,image_first,f,TRUE,常人,img/C_ambi40.png,circle,Neutral,1,exp2,match
2,2001,5,521.32,psychophysics,425,j,j,image_first,j,TRUE,坏人,img/C_ambi40.png,circle,Bad,1,exp2,mismatch
2,2001,5,521.32,psychophysics,233,f,f,image_first,f,TRUE,坏人,img/T_ambi40.png,triangle,Bad,1,exp2,match
2,2001,5,521.32,psychophysics,834,f,f,image_first,j,FALSE,好人,img/C_ambi40.png,circle,Good,0,exp2,mismatch
2,2001,5,521.32,psychophysics,376,f,f,image_first,f,TRUE,好人,img/S_ambi40.png,square,Good,1,exp2,match
2,2001,5,521.32,psychophysics,510,j,j,image_first,j,TRUE,坏人,img/C_ambi40.png,circle,Bad,1,exp2,mismatch
2,2001,5,521.32,psychophysics,285,f,f,image_first,j,FALSE,常人,img/T_ambi40.png,triangle,Neutral,0,exp2,mismatch
2,2001,5,521.32,psychophysics,293,j,j,image_first,f,FALSE,常人,img/C_ambi40.png,circle,Neutral,0,exp2,match
2,2001,5,521.32,psychophysics,460,j,j,image_first,f,FALSE,坏人,img/T_ambi40.png,triangle,Bad,0,exp2,match
2,2001,5,521.32,psychophysics,459,f,f,image_first,f,TRUE,常人,img/C_ambi40.png,circle,Neutral,1,exp2,match
2,2001,5,521.32,psychophysics,382,f,f,image_first,f,TRUE,好人,img/S_ambi40.png,square,Good,1,exp2,match
2,2001,5,521.32,psychophysics,339,j,j,image_first,j,TRUE,好人,img/T_ambi40.png,triangle,Good,1,exp2,mismatch
2,2001,5,521.32,psychophysics,206,f,f,image_first,j,FALSE,坏人,img/S_ambi40.png,square,Bad,0,exp2,mismatch
2,2001,5,521.32,psychophysics,190,j,j,image_first,j,TRUE,常人,img/S_ambi40.png,square,Neutral,1,exp2,mismatch
2,2001,5,521.32,psychophysics,197,f,f,image_first,f,TRUE,坏人,img/T_ambi40.png,triangle,Bad,1,exp2,match
2,2001,5,521.32,psychophysics,89,f,f,image_first,f,TRUE,坏人,img/T_ambi40.png,triangle,Bad,1,exp2,match
2,2001,5,521.32,psychophysics,27,j,j,image_first,j,TRUE,好人,img/C_ambi40.png,circle,Good,1,exp2,mismatch
2,2001,5,521.32,psychophysics,216,j,j,image_first,j,TRUE,好人,img/T_ambi40.png,triangle,Good,1,exp2,mismatch
2,2001,5,521.32,psychophysics,188,j,j,image_first,j,TRUE,坏人,img/C_ambi40.png,circle,Bad,1,exp2,mismatch
2,2001,5,521.32,psychophysics,301,j,j,image_first,j,TRUE,常人,img/T_ambi40.png,triangle,Neutral,1,exp2,mismatch
2,2001,5,521.32,psychophysics,380,j,j,image_first,j,TRUE,常人,img/S_ambi40.png,square,Neutral,1,exp2,mismatch
2,2001,5,521.32,psychophysics,905,f,f,image_first,f,TRUE,坏人,img/T_ambi40.png,triangle,Bad,1,exp2,match
2,2001,5,521.32,psychophysics,142,j,j,image_first,j,TRUE,坏人,img/S_ambi40.png,square,Bad,1,exp2,mismatch
2,2001,5,521.32,psychophysics,126,f,f,image_first,f,TRUE,常人,img/C_ambi40.png,circle,Neutral,1,exp2,match
2,2001,5,521.32,psychophysics,331,j,j,image_first,f,FALSE,好人,img/S_ambi40.png,square,Good,0,exp2,match
2,2001,5,521.32,psychophysics,66,f,f,image_first,f,TRUE,好人,img/S_ambi40.png,square,Good,1,exp2,match
2,2001,5,521.32,psychophysics,293,j,j,image_first,f,FALSE,坏人,img/T_ambi40.png,triangle,Bad,0,exp2,match
2,2001,5,521.32,psychophysics,1079,j,j,image_first,f,FALSE,好人,img/S_ambi40.png,square,Good,0,exp2,match
2,2001,5,521.32,psychophysics,383,j,j,image_first,f,FALSE,常人,img/C_ambi40.png,circle,Neutral,0,exp2,match
2,2001,5,521.32,psychophysics,468,f,f,image_first,j,FALSE,好人,img/T_ambi40.png,triangle,Good,0,exp2,mismatch
2,2001,5,521.32,psychophysics,550,f,f,image_first,j,FALSE,常人,img/S_ambi40.png,square,Neutral,0,exp2,mismatch
2,2001,5,521.32,psychophysics,148,j,j,image_first,j,TRUE,坏人,img/C_ambi40.png,circle,Bad,1,exp2,mismatch
2,2001,5,521.32,psychophysics,367,f,f,image_first,f,TRUE,好人,img/S_ambi40.png,square,Good,1,exp2,match
2,2001,5,521.32,psychophysics,1317,f,f,image_first,f,TRUE,常人,img/C_ambi40.png,circle,Neutral,1,exp2,match
2,2001,5,521.32,psychophysics,128,j,j,image_first,j,TRUE,常人,img/T_ambi40.png,triangle,Neutral,1,exp2,mismatch
2,2001,5,521.32,psychophysics,246,j,j,image_first,j,TRUE,坏人,img/S_ambi40.png,square,Bad,1,exp2,mismatch
2,2001,5,521.32,psychophysics,279,f,f,image_first,j,FALSE,好人,img/C_ambi40.png,circle,Good,0,exp2,mismatch
2,2001,5,521.32,psychophysics,1471,f,f,image_first,j,FALSE,好人,img/C_ambi40.png,circle,Good,0,exp2,mismatch
2,2001,5,521.32,psychophysics,288,j,j,image_first,j,TRUE,常人,img/T_ambi40.png,triangle,Neutral,1,exp2,mismatch
2,2001,5,521.32,psychophysics,333,j,j,image_first,j,TRUE,常人,img/S_ambi40.png,square,Neutral,1,exp2,mismatch
2,2001,5,521.32,psychophysics,158,f,f,image_first,j,FALSE,坏人,img/C_ambi40.png,circle,Bad,0,exp2,mismatch
2,2001,5,521.32,psychophysics,126,f,f,image_first,f,TRUE,常人,img/C_ambi40.png,circle,Neutral,1,exp2,match
2,2001,5,521.32,psychophysics,95,j,j,image_first,f,FALSE,好人,img/S_ambi40.png,square,Good,0,exp2,match
2,2001,5,521.32,psychophysics,377,j,j,image_first,j,TRUE,坏人,img/S_ambi40.png,square,Bad,1,exp2,mismatch
2,2001,5,521.32,psychophysics,175,f,f,image_first,f,TRUE,好人,img/S_ambi40.png,square,Good,1,exp2,match
2,2001,5,521.32,psychophysics,855,f,f,image_first,f,TRUE,常人,img/C_ambi40.png,circle,Neutral,1,exp2,match
2,2001,5,521.32,psychophysics,787,f,f,image_first,f,TRUE,坏人,img/T_ambi40.png,triangle,Bad,1,exp2,match
2,2001,5,521.32,psychophysics,277,f,f,image_first,f,TRUE,坏人,img/T_ambi40.png,triangle,Bad,1,exp2,match
2,2001,5,521.32,psychophysics,373,j,j,image_first,j,TRUE,好人,img/T_ambi40.png,triangle,Good,1,exp2,mismatch
2,2001,5,521.32,psychophysics,147,f,f,image_first,j,FALSE,坏人,img/C_ambi40.png,circle,Bad,0,exp2,mismatch
2,2001,5,521.32,psychophysics,173,j,j,image_first,j,TRUE,坏人,img/S_ambi40.png,square,Bad,1,exp2,mismatch
2,2001,5,521.32,psychophysics,547,j,j,image_first,f,FALSE,坏人,img/T_ambi40.png,triangle,Bad,0,exp2,match
2,2001,5,521.32,psychophysics,278,f,f,image_first,f,TRUE,坏人,img/T_ambi40.png,triangle,Bad,1,exp2,match
2,2001,5,521.32,psychophysics,323,j,j,image_first,j,TRUE,好人,img/T_ambi40.png,triangle,Good,1,exp2,mismatch
2,2001,5,521.32,psychophysics,209,f,f,image_first,f,TRUE,好人,img/S_ambi40.png,square,Good,1,exp2,match
2,2001,5,521.32,psychophysics,159,j,j,image_first,j,TRUE,常人,img/T_ambi40.png,triangle,Neutral,1,exp2,mismatch
2,2001,5,521.32,psychophysics,370,f,f,image_first,f,TRUE,常人,img/C_ambi40.png,circle,Neutral,1,exp2,match
2,2001,5,521.32,psychophysics,300,j,j,image_first,f,FALSE,好人,img/S_ambi40.png,square,Good,0,exp2,match
2,2001,5,521.32,psychophysics,190,j,j,image_first,j,TRUE,常人,img/S_ambi40.png,square,Neutral,1,exp2,mismatch
2,2001,5,521.32,psychophysics,118,f,f,image_first,f,TRUE,好人,img/S_ambi40.png,square,Good,1,exp2,match
2,2001,5,521.32,psychophysics,190,j,j,image_first,j,TRUE,常人,img/T_ambi40.png,triangle,Neutral,1,exp2,mismatch
2,2001,5,521.32,psychophysics,256,f,f,image_first,f,TRUE,常人,img/C_ambi40.png,circle,Neutral,1,exp2,match
2,2001,5,521.32,psychophysics,346,f,f,image_first,j,FALSE,常人,img/S_ambi40.png,square,Neutral,0,exp2,mismatch
2,2001,5,521.32,psychophysics,709,j,j,image_first,j,TRUE,坏人,img/S_ambi40.png,square,Bad,1,exp2,mismatch
2,2001,5,521.32,psychophysics,625,f,f,image_first,f,TRUE,坏人,img/T_ambi40.png,triangle,Bad,1,exp2,match
2,2001,5,521.32,psychophysics,865,f,f,image_first,j,FALSE,坏人,img/C_ambi40.png,circle,Bad,0,exp2,mismatch
2,2001,5,521.32,psychophysics,1445,f,f,image_first,j,FALSE,好人,img/T_ambi40.png,triangle,Good,0,exp2,mismatch
2,2001,5,521.32,psychophysics,298,j,j,image_first,j,TRUE,好人,img/C_ambi40.png,circle,Good,1,exp2,mismatch
2,2001,5,521.32,psychophysics,16,f,f,image_first,f,TRUE,好人,img/S_ambi40.png,square,Good,1,exp2,match
2,2001,5,521.32,psychophysics,87,j,j,image_first,f,FALSE,常人,img/C_ambi40.png,circle,Neutral,0,exp2,match
2,2001,5,521.32,psychophysics,70,f,f,image_first,f,TRUE,常人,img/C_ambi40.png,circle,Neutral,1,exp2,match
2,2001,5,521.32,psychophysics,32,f,f,image_first,f,TRUE,坏人,img/T_ambi40.png,triangle,Bad,1,exp2,match
2,2001,5,521.32,psychophysics,47,f,f,image_first,j,FALSE,常人,img/T_ambi40.png,triangle,Neutral,0,exp2,mismatch
2,2001,5,521.32,psychophysics,361,f,f,image_first,f,TRUE,好人,img/S_ambi40.png,square,Good,1,exp2,match
2,2001,5,521.32,psychophysics,87,f,f,image_first,j,FALSE,好人,img/C_ambi40.png,circle,Good,0,exp2,mismatch
2,2001,5,521.32,psychophysics,145,j,j,image_first,j,TRUE,坏人,img/C_ambi40.png,circle,Bad,1,exp2,mismatch
2,2001,5,521.32,psychophysics,288,f,f,image_first,f,TRUE,坏人,img/T_ambi40.png,triangle,Bad,1,exp2,match
2,2001,5,521.32,psychophysics,1014,f,f,image_first,f,TRUE,好人,img/S_ambi40.png,square,Good,1,exp2,match
2,2001,5,521.32,psychophysics,499,f,f,image_first,j,FALSE,好人,img/T_ambi40.png,triangle,Good,0,exp2,mismatch
2,2001,5,521.32,psychophysics,680,f,f,image_first,j,FALSE,坏人,img/S_ambi40.png,square,Bad,0,exp2,mismatch
2,2001,5,521.32,psychophysics,198,j,j,image_first,f,FALSE,常人,img/C_ambi40.png,circle,Neutral,0,exp2,match
2,2001,5,521.32,psychophysics,98,f,f,image_first,j,FALSE,常人,img/S_ambi40.png,square,Neutral,0,exp2,mismatch
2,2001,5,521.32,psychophysics,80,j,j,image_first,j,TRUE,好人,img/C_ambi40.png,circle,Good,1,exp2,mismatch
2,2001,5,521.32,psychophysics,244,f,f,image_first,f,TRUE,坏人,img/T_ambi40.png,triangle,Bad,1,exp2,match
2,2001,5,521.32,psychophysics,320,j,j,image_first,j,TRUE,坏人,img/S_ambi40.png,square,Bad,1,exp2,mismatch
2,2001,5,521.32,psychophysics,29,f,f,image_first,f,TRUE,常人,img/C_ambi40.png,circle,Neutral,1,exp2,match
2,2001,5,521.32,psychophysics,134,j,j,image_first,j,TRUE,常人,img/S_ambi40.png,square,Neutral,1,exp2,mismatch
2,2001,5,521.32,psychophysics,406,j,j,image_first,f,FALSE,坏人,img/T_ambi40.png,triangle,Bad,0,exp2,match
2,2001,5,521.32,psychophysics,224,f,f,image_first,j,FALSE,好人,img/T_ambi40.png,triangle,Good,0,exp2,mismatch
2,2001,5,521.32,psychophysics,207,f,f,image_first,f,TRUE,好人,img/S_ambi40.png,square,Good,1,exp2,match
2,2001,5,521.32,psychophysics,902,f,f,image_first,j,FALSE,坏人,img/C_ambi40.png,circle,Bad,0,exp2,mismatch
2,2001,5,521.32,psychophysics,1299,f,f,image_first,f,TRUE,好人,img/S_ambi40.png,square,Good,1,exp2,match
2,2001,5,521.32,psychophysics,289,j,j,image_first,j,TRUE,坏人,img/S_ambi40.png,square,Bad,1,exp2,mismatch
2,2001,5,521.32,psychophysics,624,f,f,image_first,f,TRUE,好人,img/S_ambi40.png,square,Good,1,exp2,match
2,2001,5,521.32,psychophysics,1058,f,f,image_first,j,FALSE,常人,img/T_ambi40.png,triangle,Neutral,0,exp2,mismatch
2,2001,5,521.32,psychophysics,978,f,f,image_first,f,TRUE,常人,img/C_ambi40.png,circle,Neutral,1,exp2,match
2,2001,5,521.32,psychophysics,375,f,f,image_first,j,FALSE,好人,img/T_ambi40.png,triangle,Good,0,exp2,mismatch
2,2001,5,521.32,psychophysics,1462,f,f,image_first,j,FALSE,好人,img/C_ambi40.png,circle,Good,0,exp2,mismatch
2,2001,5,521.32,psychophysics,207,f,f,image_first,j,FALSE,常人,img/S_ambi40.png,square,Neutral,0,exp2,mismatch
2,2001,5,521.32,psychophysics,511,j,j,image_first,f,FALSE,好人,img/S_ambi40.png,square,Good,0,exp2,match
2,2001,5,521.32,psychophysics,245,f,f,image_first,f,TRUE,坏人,img/T_ambi40.png,triangle,Bad,1,exp2,match
2,2001,5,521.32,psychophysics,189,f,f,word_first,f,TRUE,坏人,img/T_ambi40.png,triangle,Bad,1,exp2,match
2,2001,5,521.32,psychophysics,111,j,j,word_first,f,FALSE,常人,img/C_ambi40.png,circle,Neutral,0,exp2,match
2,2001,5,521.32,psychophysics,188,f,f,word_first,j,FALSE,常人,img/T_ambi40.png,triangle,Neutral,0,exp2,mismatch
2,2001,5,521.32,psychophysics,135,f,f,word_first,f,TRUE,好人,img/S_ambi40.png,square,Good,1,exp2,match
2,2001,5,521.32,psychophysics,215,j,j,word_first,j,TRUE,好人,img/T_ambi40.png,triangle,Good,1,exp2,mismatch
2,2001,5,521.32,psychophysics,673,f,f,word_first,f,TRUE,好人,img/S_ambi40.png,square,Good,1,exp2,match
2,2001,5,521.32,psychophysics,203,f,f,word_first,j,FALSE,坏人,img/C_ambi40.png,circle,Bad,0,exp2,mismatch
2,2001,5,521.32,psychophysics,493,j,j,word_first,j,TRUE,常人,img/S_ambi40.png,square,Neutral,1,exp2,mismatch
2,2001,5,521.32,psychophysics,489,f,f,word_first,j,FALSE,坏人,img/S_ambi40.png,square,Bad,0,exp2,mismatch
2,2001,5,521.32,psychophysics,206,j,j,word_first,j,TRUE,好人,img/C_ambi40.png,circle,Good,1,exp2,mismatch
2,2001,5,521.32,psychophysics,246,f,f,word_first,j,FALSE,好人,img/C_ambi40.png,circle,Good,0,exp2,mismatch
2,2001,5,521.32,psychophysics,147,f,f,word_first,j,FALSE,坏人,img/C_ambi40.png,circle,Bad,0,exp2,mismatch
2,2001,5,521.32,psychophysics,351,f,f,word_first,f,TRUE,常人,img/C_ambi40.png,circle,Neutral,1,exp2,match
2,2001,5,521.32,psychophysics,33,j,j,word_first,j,TRUE,常人,img/T_ambi40.png,triangle,Neutral,1,exp2,mismatch
2,2001,5,521.32,psychophysics,300,f,f,word_first,j,FALSE,坏人,img/S_ambi40.png,square,Bad,0,exp2,mismatch
2,2001,5,521.32,psychophysics,239,j,j,word_first,f,FALSE,常人,img/C_ambi40.png,circle,Neutral,0,exp2,match
2,2001,5,521.32,psychophysics,1210,f,f,word_first,f,TRUE,坏人,img/T_ambi40.png,triangle,Bad,1,exp2,match
2,2001,5,521.32,psychophysics,662,f,f,word_first,j,FALSE,好人,img/T_ambi40.png,triangle,Good,0,exp2,mismatch
2,2001,5,521.32,psychophysics,262,f,f,word_first,j,FALSE,常人,img/S_ambi40.png,square,Neutral,0,exp2,mismatch
2,2001,5,521.32,psychophysics,297,f,f,word_first,f,TRUE,坏人,img/T_ambi40.png,triangle,Bad,1,exp2,match
2,2001,5,521.32,psychophysics,119,f,f,word_first,j,FALSE,常人,img/T_ambi40.png,triangle,Neutral,0,exp2,mismatch
2,2001,5,521.32,psychophysics,389,j,j,word_first,f,FALSE,好人,img/S_ambi40.png,square,Good,0,exp2,match
2,2001,5,521.32,psychophysics,51,f,f,word_first,f,TRUE,常人,img/C_ambi40.png,circle,Neutral,1,exp2,match
2,2001,5,521.32,psychophysics,263,j,j,word_first,f,FALSE,好人,img/S_ambi40.png,square,Good,0,exp2,match
2,2001,5,521.32,psychophysics,106,f,f,word_first,f,TRUE,坏人,img/T_ambi40.png,triangle,Bad,1,exp2,match
2,2001,5,521.32,psychophysics,514,j,j,word_first,j,TRUE,坏人,img/S_ambi40.png,square,Bad,1,exp2,mismatch
2,2001,5,521.32,psychophysics,218,f,f,word_first,j,FALSE,常人,img/S_ambi40.png,square,Neutral,0,exp2,mismatch
2,2001,5,521.32,psychophysics,284,f,f,word_first,f,TRUE,常人,img/C_ambi40.png,circle,Neutral,1,exp2,match
2,2001,5,521.32,psychophysics,107,f,f,word_first,f,TRUE,坏人,img/T_ambi40.png,triangle,Bad,1,exp2,match
2,2001,5,521.32,psychophysics,222,f,f,word_first,j,FALSE,好人,img/C_ambi40.png,circle,Good,0,exp2,mismatch
2,2001,5,521.32,psychophysics,287,f,f,word_first,j,FALSE,好人,img/T_ambi40.png,triangle,Good,0,exp2,mismatch
2,2001,5,521.32,psychophysics,303,f,f,word_first,j,FALSE,坏人,img/C_ambi40.png,circle,Bad,0,exp2,mismatch
2,2001,5,521.32,psychophysics,191,f,f,word_first,j,FALSE,坏人,img/C_ambi40.png,circle,Bad,0,exp2,mismatch
2,2001,5,521.32,psychophysics,314,j,j,word_first,f,FALSE,坏人,img/T_ambi40.png,triangle,Bad,0,exp2,match
2,2001,5,521.32,psychophysics,459,f,f,word_first,f,TRUE,好人,img/S_ambi40.png,square,Good,1,exp2,match
2,2001,5,521.32,psychophysics,494,j,j,word_first,f,FALSE,好人,img/S_ambi40.png,square,Good,0,exp2,match
2,2001,5,521.32,psychophysics,140,f,f,word_first,j,FALSE,常人,img/S_ambi40.png,square,Neutral,0,exp2,mismatch
2,2001,5,521.32,psychophysics,645,f,f,word_first,f,TRUE,常人,img/C_ambi40.png,circle,Neutral,1,exp2,match
2,2001,5,521.32,psychophysics,368,f,f,word_first,j,FALSE,好人,img/T_ambi40.png,triangle,Good,0,exp2,mismatch
2,2001,5,521.32,psychophysics,1474,j,j,word_first,j,TRUE,常人,img/T_ambi40.png,triangle,Neutral,1,exp2,mismatch
2,2001,5,521.32,psychophysics,4,f,f,word_first,j,FALSE,好人,img/C_ambi40.png,circle,Good,0,exp2,mismatch
2,2001,5,521.32,psychophysics,207,f,f,word_first,f,TRUE,坏人,img/T_ambi40.png,triangle,Bad,1,exp2,match
2,2001,5,521.32,psychophysics,543,f,f,word_first,f,TRUE,常人,img/C_ambi40.png,circle,Neutral,1,exp2,match
2,2001,5,521.32,psychophysics,307,f,f,word_first,f,TRUE,好人,img/S_ambi40.png,square,Good,1,exp2,match
2,2001,5,521.32,psychophysics,186,f,f,word_first,f,TRUE,坏人,img/T_ambi40.png,triangle,Bad,1,exp2,match
2,2001,5,521.32,psychophysics,776,f,f,word_first,j,FALSE,常人,img/S_ambi40.png,square,Neutral,0,exp2,mismatch
2,2001,5,521.32,psychophysics,303,f,f,word_first,j,FALSE,好人,img/C_ambi40.png,circle,Good,0,exp2,mismatch
2,2001,5,521.32,psychophysics,2,f,f,word_first,j,FALSE,坏人,img/C_ambi40.png,circle,Bad,0,exp2,mismatch
2,2001,5,521.32,psychophysics,678,f,f,word_first,j,FALSE,常人,img/T_ambi40.png,triangle,Neutral,0,exp2,mismatch
2,2001,5,521.32,psychophysics,579,f,f,word_first,j,FALSE,常人,img/S_ambi40.png,square,Neutral,0,exp2,mismatch
2,2001,5,521.32,psychophysics,216,f,f,word_first,j,FALSE,好人,img/T_ambi40.png,triangle,Good,0,exp2,mismatch
2,2001,5,521.32,psychophysics,91,f,f,word_first,j,FALSE,好人,img/C_ambi40.png,circle,Good,0,exp2,mismatch
2,2001,5,521.32,psychophysics,538,f,f,word_first,f,TRUE,常人,img/C_ambi40.png,circle,Neutral,1,exp2,match
2,2001,5,521.32,psychophysics,499,f,f,word_first,j,FALSE,坏人,img/C_ambi40.png,circle,Bad,0,exp2,mismatch
2,2001,5,521.32,psychophysics,675,f,f,word_first,f,TRUE,好人,img/S_ambi40.png,square,Good,1,exp2,match
2,2001,5,521.32,psychophysics,51,f,f,word_first,f,TRUE,坏人,img/T_ambi40.png,triangle,Bad,1,exp2,match
2,2001,5,521.32,psychophysics,1421,j,j,word_first,j,TRUE,坏人,img/S_ambi40.png,square,Bad,1,exp2,mismatch
2,2001,5,521.32,psychophysics,189,f,f,word_first,f,TRUE,常人,img/C_ambi40.png,circle,Neutral,1,exp2,match
2,2001,5,521.32,psychophysics,256,f,f,word_first,f,TRUE,常人,img/C_ambi40.png,circle,Neutral,1,exp2,match
2,2001,5,521.32,psychophysics,290,f,f,word_first,f,TRUE,坏人,img/T_ambi40.png,triangle,Bad,1,exp2,match
2,2001,5,521.32,psychophysics,311,f,f,word_first,f,TRUE,坏人,img/T_ambi40.png,triangle,Bad,1,exp2,match
2,2001,5,521.32,psychophysics,24,f,f,word_first,j,FALSE,常人,img/S_ambi40.png,square,Neutral,0,exp2,mismatch
2,2001,5,521.32,psychophysics,197,f,f,word_first,j,FALSE,好人,img/C_ambi40.png,circle,Good,0,exp2,mismatch
2,2001,5,521.32,psychophysics,116,f,f,word_first,f,TRUE,好人,img/S_ambi40.png,square,Good,1,exp2,match
2,2001,5,521.32,psychophysics,266,f,f,word_first,f,TRUE,好人,img/S_ambi40.png,square,Good,1,exp2,match
2,2001,5,521.32,psychophysics,434,f,f,word_first,j,FALSE,坏人,img/S_ambi40.png,square,Bad,0,exp2,mismatch
2,2001,5,521.32,psychophysics,264,f,f,word_first,j,FALSE,坏人,img/C_ambi40.png,circle,Bad,0,exp2,mismatch
2,2001,5,521.32,psychophysics,857,f,f,word_first,j,FALSE,常人,img/T_ambi40.png,triangle,Neutral,0,exp2,mismatch
2,2001,5,521.32,psychophysics,209,f,f,word_first,f,TRUE,常人,img/C_ambi40.png,circle,Neutral,1,exp2,match
2,2001,5,521.32,psychophysics,106,f,f,word_first,f,TRUE,好人,img/S_ambi40.png,square,Good,1,exp2,match
2,2001,5,521.32,psychophysics,70,f,f,word_first,f,TRUE,坏人,img/T_ambi40.png,triangle,Bad,1,exp2,match
2,2001,5,521.32,psychophysics,171,f,f,word_first,j,FALSE,坏人,img/C_ambi40.png,circle,Bad,0,exp2,mismatch
2,2001,5,521.32,psychophysics,78,j,j,word_first,f,FALSE,好人,img/S_ambi40.png,square,Good,0,exp2,match
2,2001,5,521.32,psychophysics,294,f,f,word_first,j,FALSE,常人,img/T_ambi40.png,triangle,Neutral,0,exp2,mismatch
2,2001,5,521.32,psychophysics,344,j,j,word_first,j,TRUE,好人,img/C_ambi40.png,circle,Good,1,exp2,mismatch
2,2001,5,521.32,psychophysics,494,f,f,word_first,j,FALSE,坏人,img/S_ambi40.png,square,Bad,0,exp2,mismatch
2,2001,5,521.32,psychophysics,448,f,f,word_first,f,TRUE,常人,img/C_ambi40.png,circle,Neutral,1,exp2,match
2,2001,5,521.32,psychophysics,762,f,f,word_first,f,TRUE,坏人,img/T_ambi40.png,triangle,Bad,1,exp2,match
2,2001,5,521.32,psychophysics,166,f,f,word_first,f,TRUE,好人,img/S_ambi40.png,square,Good,1,exp2,match
2,2001,5,521.32,psychophysics,216,j,j,word_first,f,FALSE,好人,img/S_ambi40.png,square,Good,0,exp2,match
2,2001,5,521.32,psychophysics,56,f,f,word_first,j,FALSE,坏人,img/C_ambi40.png,circle,Bad,0,exp2,mismatch
2,2001,5,521.32,psychophysics,286,j,j,word_first,j,TRUE,常人,img/T_ambi40.png,triangle,Neutral,1,exp2,mismatch
2,2001,5,521.32,psychophysics,218,f,f,word_first,f,TRUE,坏人,img/T_ambi40.png,triangle,Bad,1,exp2,match
2,2001,5,521.32,psychophysics,169,j,j,word_first,f,FALSE,常人,img/C_ambi40.png,circle,Neutral,0,exp2,match
2,2001,5,521.32,psychophysics,130,f,f,word_first,f,TRUE,坏人,img/T_ambi40.png,triangle,Bad,1,exp2,match
2,2001,5,521.32,psychophysics,550,j,j,word_first,j,TRUE,好人,img/C_ambi40.png,circle,Good,1,exp2,mismatch
2,2001,5,521.32,psychophysics,260,f,f,word_first,j,FALSE,坏人,img/S_ambi40.png,square,Bad,0,exp2,mismatch
2,2001,5,521.32,psychophysics,398,f,f,word_first,f,TRUE,常人,img/C_ambi40.png,circle,Neutral,1,exp2,match
2,2001,5,521.32,psychophysics,254,f,f,word_first,j,FALSE,常人,img/S_ambi40.png,square,Neutral,0,exp2,mismatch
2,2001,5,521.32,psychophysics,690,j,j,word_first,f,FALSE,常人,img/C_ambi40.png,circle,Neutral,0,exp2,match
2,2001,5,521.32,psychophysics,41,f,f,word_first,j,FALSE,好人,img/T_ambi40.png,triangle,Good,0,exp2,mismatch
2,2001,5,521.32,psychophysics,39,f,f,word_first,j,FALSE,常人,img/S_ambi40.png,square,Neutral,0,exp2,mismatch
2,2001,5,521.32,psychophysics,72,f,f,word_first,f,TRUE,坏人,img/T_ambi40.png,triangle,Bad,1,exp2,match
2,2001,5,521.32,psychophysics,34,f,f,word_first,f,TRUE,坏人,img/T_ambi40.png,triangle,Bad,1,exp2,match
2,2001,5,521.32,psychophysics,214,f,f,word_first,f,TRUE,好人,img/S_ambi40.png,square,Good,1,exp2,match
2,2001,5,521.32,psychophysics,9,f,f,word_first,f,TRUE,好人,img/S_ambi40.png,square,Good,1,exp2,match
2,2001,5,521.32,psychophysics,121,f,f,word_first,j,FALSE,坏人,img/S_ambi40.png,square,Bad,0,exp2,mismatch
2,2001,5,521.32,psychophysics,405,f,f,word_first,f,TRUE,常人,img/C_ambi40.png,circle,Neutral,1,exp2,match
2,2001,5,521.32,psychophysics,962,f,f,word_first,f,TRUE,坏人,img/T_ambi40.png,triangle,Bad,1,exp2,match
2,2001,5,521.32,psychophysics,50,f,f,word_first,j,FALSE,坏人,img/C_ambi40.png,circle,Bad,0,exp2,mismatch
2,2001,5,521.32,psychophysics,278,f,f,word_first,j,FALSE,常人,img/S_ambi40.png,square,Neutral,0,exp2,mismatch
2,2001,5,521.32,psychophysics,69,f,f,word_first,f,TRUE,坏人,img/T_ambi40.png,triangle,Bad,1,exp2,match
2,2001,5,521.32,psychophysics,857,f,f,word_first,j,FALSE,常人,img/T_ambi40.png,triangle,Neutral,0,exp2,mismatch
2,2001,5,521.32,psychophysics,438,j,j,word_first,f,FALSE,好人,img/S_ambi40.png,square,Good,0,exp2,match
2,2001,5,521.32,psychophysics,194,f,f,word_first,f,TRUE,好人,img/S_ambi40.png,square,Good,1,exp2,match
2,2001,5,521.32,psychophysics,325,f,f,word_first,j,FALSE,坏人,img/S_ambi40.png,square,Bad,0,exp2,mismatch
2,2001,5,521.32,psychophysics,531,j,j,word_first,f,FALSE,常人,img/C_ambi40.png,circle,Neutral,0,exp2,match
2,2001,5,521.32,psychophysics,1436,f,f,word_first,f,TRUE,常人,img/C_ambi40.png,circle,Neutral,1,exp2,match
2,2001,5,521.32,psychophysics,560,f,f,word_first,j,FALSE,常人,img/T_ambi40.png,triangle,Neutral,0,exp2,mismatch
2,2001,5,521.32,psychophysics,32,j,j,word_first,j,TRUE,坏人,img/S_ambi40.png,square,Bad,1,exp2,mismatch
2,2001,5,521.32,psychophysics,209,f,f,word_first,j,FALSE,坏人,img/C_ambi40.png,circle,Bad,0,exp2,mismatch
2,2001,5,521.32,psychophysics,254,j,j,word_first,j,TRUE,好人,img/T_ambi40.png,triangle,Good,1,exp2,mismatch
2,2001,5,521.32,psychophysics,328,f,f,word_first,f,TRUE,坏人,img/T_ambi40.png,triangle,Bad,1,exp2,match
2,2001,5,521.32,psychophysics,538,f,f,word_first,f,TRUE,坏人,img/T_ambi40.png,triangle,Bad,1,exp2,match
2,2001,5,521.32,psychophysics,517,j,j,word_first,j,TRUE,好人,img/C_ambi40.png,circle,Good,1,exp2,mismatch
2,2001,5,521.32,psychophysics,225,f,f,word_first,f,TRUE,好人,img/S_ambi40.png,square,Good,1,exp2,match
2,2001,5,521.32,psychophysics,662,f,f,word_first,f,TRUE,好人,img/S_ambi40.png,square,Good,1,exp2,match
2,2001,5,521.32,psychophysics,108,j,j,word_first,f,FALSE,常人,img/C_ambi40.png,circle,Neutral,0,exp2,match
2,2001,5,521.32,psychophysics,1217,f,f,word_first,f,TRUE,常人,img/C_ambi40.png,circle,Neutral,1,exp2,match
2,2001,5,521.32,psychophysics,641,f,f,word_first,f,TRUE,常人,img/C_ambi40.png,circle,Neutral,1,exp2,match
2,2001,5,521.32,psychophysics,61,f,f,word_first,f,TRUE,好人,img/S_ambi40.png,square,Good,1,exp2,match
2,2001,5,521.32,psychophysics,378,f,f,word_first,j,FALSE,好人,img/T_ambi40.png,triangle,Good,0,exp2,mismatch
2,2001,5,521.32,psychophysics,628,f,f,word_first,j,FALSE,常人,img/S_ambi40.png,square,Neutral,0,exp2,mismatch
2,2001,5,521.32,psychophysics,594,f,f,word_first,j,FALSE,坏人,img/C_ambi40.png,circle,Bad,0,exp2,mismatch
2,2001,5,521.32,psychophysics,176,j,j,word_first,j,TRUE,好人,img/C_ambi40.png,circle,Good,1,exp2,mismatch
2,2001,5,521.32,psychophysics,859,j,j,word_first,f,FALSE,坏人,img/T_ambi40.png,triangle,Bad,0,exp2,match
2,2001,5,521.32,psychophysics,491,j,j,word_first,j,TRUE,常人,img/T_ambi40.png,triangle,Neutral,1,exp2,mismatch
2,2001,5,521.32,psychophysics,122,f,f,word_first,f,TRUE,好人,img/S_ambi40.png,square,Good,1,exp2,match
2,2001,5,521.32,psychophysics,233,j,j,word_first,j,TRUE,常人,img/S_ambi40.png,square,Neutral,1,exp2,mismatch
2,2001,5,521.32,psychophysics,669,f,f,word_first,f,TRUE,好人,img/S_ambi40.png,square,Good,1,exp2,match
2,2001,5,521.32,psychophysics,540,f,f,word_first,f,TRUE,坏人,img/T_ambi40.png,triangle,Bad,1,exp2,match
2,2001,5,521.32,psychophysics,324,j,j,word_first,j,TRUE,好人,img/C_ambi40.png,circle,Good,1,exp2,mismatch
2,2001,5,521.32,psychophysics,9,f,f,word_first,j,FALSE,好人,img/T_ambi40.png,triangle,Good,0,exp2,mismatch
2,2001,5,521.32,psychophysics,25,j,j,word_first,j,TRUE,坏人,img/S_ambi40.png,square,Bad,1,exp2,mismatch
2,2001,5,521.32,psychophysics,132,f,f,word_first,f,TRUE,常人,img/C_ambi40.png,circle,Neutral,1,exp2,match
2,2001,5,521.32,psychophysics,36,j,j,word_first,j,TRUE,常人,img/T_ambi40.png,triangle,Neutral,1,exp2,mismatch
2,2001,5,521.32,psychophysics,402,f,f,word_first,f,TRUE,好人,img/S_ambi40.png,square,Good,1,exp2,match
2,2001,5,521.32,psychophysics,181,f,f,word_first,j,FALSE,常人,img/T_ambi40.png,triangle,Neutral,0,exp2,mismatch
2,2001,5,521.32,psychophysics,438,f,f,word_first,f,TRUE,好人,img/S_ambi40.png,square,Good,1,exp2,match
2,2001,5,521.32,psychophysics,146,j,j,word_first,j,TRUE,好人,img/T_ambi40.png,triangle,Good,1,exp2,mismatch
2,2001,5,521.32,psychophysics,74,f,f,word_first,j,FALSE,坏人,img/C_ambi40.png,circle,Bad,0,exp2,mismatch
2,2001,5,521.32,psychophysics,114,j,j,word_first,f,FALSE,坏人,img/T_ambi40.png,triangle,Bad,0,exp2,match
2,2001,5,521.32,psychophysics,160,f,f,word_first,f,TRUE,坏人,img/T_ambi40.png,triangle,Bad,1,exp2,match
2,2001,5,521.32,psychophysics,1447,f,f,word_first,j,FALSE,常人,img/S_ambi40.png,square,Neutral,0,exp2,mismatch
2,2001,5,521.32,psychophysics,511,f,f,word_first,f,TRUE,常人,img/C_ambi40.png,circle,Neutral,1,exp2,match
2,2001,5,521.32,psychophysics,152,f,f,word_first,f,TRUE,常人,img/C_ambi40.png,circle,Neutral,1,exp2,match
2,2001,5,521.32,psychophysics,637,j,j,word_first,f,FALSE,好人,img/S_ambi40.png,square,Good,0,exp2,match
2,2001,5,521.32,psychophysics,244,f,f,word_first,j,FALSE,好人,img/C_ambi40.png,circle,Good,0,exp2,mismatch
2,2001,5,521.32,psychophysics,388,f,f,word_first,f,TRUE,好人,img/S_ambi40.png,square,Good,1,exp2,match
2,2001,5,521.32,psychophysics,1347,j,j,word_first,j,TRUE,好人,img/T_ambi40.png,triangle,Good,1,exp2,mismatch
2,2001,5,521.32,psychophysics,279,f,f,word_first,j,FALSE,坏人,img/C_ambi40.png,circle,Bad,0,exp2,mismatch
2,2001,5,521.32,psychophysics,153,f,f,word_first,f,TRUE,坏人,img/T_ambi40.png,triangle,Bad,1,exp2,match
2,2001,5,521.32,psychophysics,1307,j,j,word_first,j,TRUE,常人,img/T_ambi40.png,triangle,Neutral,1,exp2,mismatch
2,2001,5,521.32,psychophysics,149,f,f,word_first,f,TRUE,坏人,img/T_ambi40.png,triangle,Bad,1,exp2,match
2,2001,5,521.32,psychophysics,113,j,j,word_first,j,TRUE,坏人,img/S_ambi40.png,square,Bad,1,exp2,mismatch
2,2001,5,521.32,psychophysics,9,f,f,word_first,f,TRUE,常人,img/C_ambi40.png,circle,Neutral,1,exp2,match
2,2001,5,521.32,psychophysics,196,f,f,word_first,j,FALSE,好人,img/C_ambi40.png,circle,Good,0,exp2,mismatch
2,2001,5,521.32,psychophysics,8,f,f,word_first,j,FALSE,常人,img/T_ambi40.png,triangle,Neutral,0,exp2,mismatch
2,2001,5,521.32,psychophysics,692,f,f,word_first,f,TRUE,好人,img/S_ambi40.png,square,Good,1,exp2,match
2,2001,5,521.32,psychophysics,186,f,f,word_first,f,TRUE,坏人,img/T_ambi40.png,triangle,Bad,1,exp2,match
2,2001,5,521.32,psychophysics,1235,f,f,word_first,j,FALSE,坏人,img/C_ambi40.png,circle,Bad,0,exp2,mismatch
2,2001,5,521.32,psychophysics,459,f,f,word_first,f,TRUE,常人,img/C_ambi40.png,circle,Neutral,1,exp2,match
2,2001,5,521.32,psychophysics,756,f,f,word_first,j,FALSE,好人,img/T_ambi40.png,triangle,Good,0,exp2,mismatch
2,2001,5,521.32,psychophysics,82,f,f,word_first,f,TRUE,常人,img/C_ambi40.png,circle,Neutral,1,exp2,match
2,2001,5,521.32,psychophysics,269,f,f,word_first,j,FALSE,坏人,img/S_ambi40.png,square,Bad,0,exp2,mismatch
2,2001,5,521.32,psychophysics,448,j,j,word_first,f,FALSE,坏人,img/T_ambi40.png,triangle,Bad,0,exp2,match
2,2001,5,521.32,psychophysics,268,f,f,word_first,f,TRUE,常人,img/C_ambi40.png,circle,Neutral,1,exp2,match
2,2001,5,521.32,psychophysics,93,f,f,word_first,j,FALSE,常人,img/S_ambi40.png,square,Neutral,0,exp2,mismatch
2,2001,5,521.32,psychophysics,775,j,j,word_first,f,FALSE,好人,img/S_ambi40.png,square,Good,0,exp2,match
2,2001,5,521.32,psychophysics,1,f,f,word_first,j,FALSE,好人,img/C_ambi40.png,circle,Good,0,exp2,mismatch
2,2001,5,521.32,psychophysics,499,f,f,word_first,j,FALSE,常人,img/T_ambi40.png,triangle,Neutral,0,exp2,mismatch
2,2001,5,521.32,psychophysics,209,f,f,word_first,j,FALSE,坏人,img/S_ambi40.png,square,Bad,0,exp2,mismatch
2,2001,5,521.32,psychophysics,328,f,f,word_first,f,TRUE,好人,img/S_ambi40.png,square,Good,1,exp2,match
2,2001,5,521.32,psychophysics,997,j,j,word_first,j,TRUE,坏人,img/C_ambi40.png,circle,Bad,1,exp2,mismatch
2,2001,5,521.32,psychophysics,332,j,j,word_first,f,FALSE,坏人,img/T_ambi40.png,triangle,Bad,0,exp2,match
2,2001,5,521.32,psychophysics,591,f,f,word_first,f,TRUE,坏人,img/T_ambi40.png,triangle,Bad,1,exp2,match
2,2001,5,521.32,psychophysics,394,f,f,word_first,j,FALSE,坏人,img/C_ambi40.png,circle,Bad,0,exp2,mismatch
2,2001,5,521.32,psychophysics,384,f,f,word_first,f,TRUE,好人,img/S_ambi40.png,square,Good,1,exp2,match
2,2001,5,521.32,psychophysics,141,f,f,word_first,f,TRUE,常人,img/C_ambi40.png,circle,Neutral,1,exp2,match
2,2001,5,521.32,psychophysics,182,f,f,word_first,f,TRUE,好人,img/S_ambi40.png,square,Good,1,exp2,match
2,2001,5,521.32,psychophysics,804,f,f,word_first,j,FALSE,坏人,img/S_ambi40.png,square,Bad,0,exp2,mismatch
2,2001,5,521.32,psychophysics,1462,f,f,word_first,f,TRUE,坏人,img/T_ambi40.png,triangle,Bad,1,exp2,match
2,2001,5,521.32,psychophysics,451,f,f,word_first,f,TRUE,常人,img/C_ambi40.png,circle,Neutral,1,exp2,match
2,2001,5,521.32,psychophysics,335,f,f,word_first,j,FALSE,常人,img/S_ambi40.png,square,Neutral,0,exp2,mismatch
2,2001,5,521.32,psychophysics,539,f,f,word_first,f,TRUE,常人,img/C_ambi40.png,circle,Neutral,1,exp2,match
2,2001,5,521.32,psychophysics,338,f,f,word_first,f,TRUE,好人,img/S_ambi40.png,square,Good,1,exp2,match
2,2001,5,521.32,psychophysics,487,f,f,word_first,j,FALSE,坏人,img/C_ambi40.png,circle,Bad,0,exp2,mismatch
2,2001,5,521.32,psychophysics,1214,f,f,word_first,j,FALSE,好人,img/C_ambi40.png,circle,Good,0,exp2,mismatch
2,2001,5,521.32,psychophysics,93,f,f,word_first,j,FALSE,坏人,img/S_ambi40.png,square,Bad,0,exp2,mismatch
2,2001,5,521.32,psychophysics,410,f,f,word_first,f,TRUE,坏人,img/T_ambi40.png,triangle,Bad,1,exp2,match
2,2001,5,521.32,psychophysics,161,f,f,word_first,f,TRUE,常人,img/C_ambi40.png,circle,Neutral,1,exp2,match
2,2001,5,521.32,psychophysics,490,f,f,word_first,j,FALSE,好人,img/T_ambi40.png,triangle,Good,0,exp2,mismatch
2,2001,5,521.32,psychophysics,73,j,j,word_first,f,FALSE,好人,img/S_ambi40.png,square,Good,0,exp2,match
2,2001,5,521.32,psychophysics,204,f,f,word_first,j,FALSE,常人,img/T_ambi40.png,triangle,Neutral,0,exp2,mismatch
2,2001,5,521.32,psychophysics,403,j,j,word_first,j,TRUE,常人,img/S_ambi40.png,square,Neutral,1,exp2,mismatch
2,2001,5,521.32,psychophysics,281,f,f,word_first,f,TRUE,坏人,img/T_ambi40.png,triangle,Bad,1,exp2,match
2,2001,5,521.32,psychophysics,121,j,j,word_first,f,FALSE,常人,img/C_ambi40.png,circle,Neutral,0,exp2,match
2,2001,5,521.32,psychophysics,476,f,f,word_first,j,FALSE,好人,img/C_ambi40.png,circle,Good,0,exp2,mismatch
2,2001,5,521.32,psychophysics,155,j,j,word_first,j,TRUE,常人,img/T_ambi40.png,triangle,Neutral,1,exp2,mismatch
2,2001,5,521.32,psychophysics,671,f,f,word_first,f,TRUE,常人,img/C_ambi40.png,circle,Neutral,1,exp2,match
2,2001,5,521.32,psychophysics,276,f,f,word_first,j,FALSE,坏人,img/C_ambi40.png,circle,Bad,0,exp2,mismatch
2,2001,5,521.32,psychophysics,54,f,f,word_first,j,FALSE,好人,img/T_ambi40.png,triangle,Good,0,exp2,mismatch
2,2001,5,521.32,psychophysics,266,j,j,word_first,f,FALSE,好人,img/S_ambi40.png,square,Good,0,exp2,match
2,2001,5,521.32,psychophysics,485,f,f,word_first,j,FALSE,常人,img/S_ambi40.png,square,Neutral,0,exp2,mismatch
2,2001,5,521.32,psychophysics,108,j,j,word_first,f,FALSE,好人,img/S_ambi40.png,square,Good,0,exp2,match
2,2001,5,521.32,psychophysics,437,f,f,word_first,j,FALSE,坏人,img/S_ambi40.png,square,Bad,0,exp2,mismatch
2,2001,5,521.32,psychophysics,110,j,j,word_first,f,FALSE,好人,img/S_ambi40.png,square,Good,0,exp2,match
2,2001,5,521.32,psychophysics,324,f,f,word_first,f,TRUE,坏人,img/T_ambi40.png,triangle,Bad,1,exp2,match
2,2001,5,521.32,psychophysics,471,f,f,word_first,j,FALSE,常人,img/T_ambi40.png,triangle,Neutral,0,exp2,mismatch
2,2001,5,521.32,psychophysics,544,f,f,word_first,j,FALSE,好人,img/C_ambi40.png,circle,Good,0,exp2,mismatch
2,2001,5,521.32,psychophysics,179,j,j,word_first,f,FALSE,坏人,img/T_ambi40.png,triangle,Bad,0,exp2,match
2,2001,5,521.32,psychophysics,561,j,j,word_first,f,FALSE,坏人,img/T_ambi40.png,triangle,Bad,0,exp2,match
2,2001,5,521.32,psychophysics,285,f,f,word_first,f,TRUE,常人,img/C_ambi40.png,circle,Neutral,1,exp2,match
2,2001,5,521.32,psychophysics,32,f,f,word_first,j,FALSE,好人,img/T_ambi40.png,triangle,Good,0,exp2,mismatch
2,2001,5,521.32,psychophysics,625,j,j,word_first,j,TRUE,坏人,img/S_ambi40.png,square,Bad,1,exp2,mismatch
2,2001,5,521.32,psychophysics,326,f,f,word_first,j,FALSE,常人,img/S_ambi40.png,square,Neutral,0,exp2,mismatch
2,2001,5,521.32,psychophysics,566,f,f,word_first,f,TRUE,好人,img/S_ambi40.png,square,Good,1,exp2,match
2,2001,5,521.32,psychophysics,43,f,f,word_first,f,TRUE,好人,img/S_ambi40.png,square,Good,1,exp2,match
2,2001,5,521.32,psychophysics,646,f,f,word_first,j,FALSE,好人,img/C_ambi40.png,circle,Good,0,exp2,mismatch
2,2001,5,521.32,psychophysics,723,f,f,word_first,f,TRUE,常人,img/C_ambi40.png,circle,Neutral,1,exp2,match
2,2001,5,521.32,psychophysics,913,f,f,word_first,j,FALSE,常人,img/T_ambi40.png,triangle,Neutral,0,exp2,mismatch
2,2001,5,521.32,psychophysics,659,j,j,word_first,j,TRUE,坏人,img/C_ambi40.png,circle,Bad,1,exp2,mismatch
2,2001,5,521.32,psychophysics,159,f,f,word_first,j,FALSE,好人,img/T_ambi40.png,triangle,Good,0,exp2,mismatch
2,2001,5,521.32,psychophysics,557,f,f,word_first,j,FALSE,坏人,img/S_ambi40.png,square,Bad,0,exp2,mismatch
2,2001,5,521.32,psychophysics,98,j,j,word_first,f,FALSE,常人,img/C_ambi40.png,circle,Neutral,0,exp2,match
2,2001,5,521.32,psychophysics,611,j,j,word_first,j,TRUE,坏人,img/C_ambi40.png,circle,Bad,1,exp2,mismatch
2,2001,5,521.32,psychophysics,375,j,j,word_first,f,FALSE,坏人,img/T_ambi40.png,triangle,Bad,0,exp2,match
2,2001,5,521.32,psychophysics,328,f,f,word_first,f,TRUE,好人,img/S_ambi40.png,square,Good,1,exp2,match
2,2001,5,521.32,psychophysics,91,j,j,word_first,f,FALSE,好人,img/S_ambi40.png,square,Good,0,exp2,match
2,2001,5,521.32,psychophysics,44,f,f,word_first,j,FALSE,常人,img/S_ambi40.png,square,Neutral,0,exp2,mismatch
2,2001,5,521.32,psychophysics,1193,f,f,word_first,f,TRUE,坏人,img/T_ambi40.png,triangle,Bad,1,exp2,match
2,2001,5,521.32,psychophysics,1464,f,f,word_first,j,FALSE,常人,img/T_ambi40.png,triangle,Neutral,0,exp2,mismatch
2,2001,5,521.32,psychophysics,255,j,j,word_first,j,TRUE,好人,img/C_ambi40.png,circle,Good,1,exp2,mismatch
3,2001,5,505.35,psychophysics,1231,f,f,simultaneous,f,TRUE,好人,img/S_ambi40.png,square,Good,1,exp2,mismatch
3,2001,5,505.35,psychophysics,852,j,j,simultaneous,j,TRUE,常人,img/C_ambi40.png,circle,Neutral,1,exp2,match
3,2001,5,505.35,psychophysics,1039,f,f,simultaneous,f,TRUE,常人,img/T_ambi40.png,triangle,Neutral,1,exp2,mismatch
3,2001,5,505.35,psychophysics,715,j,j,simultaneous,j,TRUE,好人,img/T_ambi40.png,triangle,Good,1,exp2,match
3,2001,5,505.35,psychophysics,1206,j,j,simultaneous,j,TRUE,坏人,img/S_ambi40.png,square,Bad,1,exp2,match
3,2001,5,505.35,psychophysics,736,f,f,simultaneous,j,FALSE,常人,img/C_ambi40.png,circle,Neutral,0,exp2,match
3,2001,5,505.35,psychophysics,963,f,f,simultaneous,f,TRUE,坏人,img/T_ambi40.png,triangle,Bad,1,exp2,mismatch
3,2001,5,505.35,psychophysics,950,f,f,simultaneous,f,TRUE,好人,img/C_ambi40.png,circle,Good,1,exp2,mismatch
3,2001,5,505.35,psychophysics,1059,f,f,simultaneous,f,TRUE,坏人,img/C_ambi40.png,circle,Bad,1,exp2,mismatch
3,2001,5,505.35,psychophysics,1516,f,f,simultaneous,f,TRUE,常人,img/S_ambi40.png,square,Neutral,1,exp2,mismatch
3,2001,5,505.35,psychophysics,661,j,j,simultaneous,j,TRUE,好人,img/T_ambi40.png,triangle,Good,1,exp2,match
3,2001,5,505.35,psychophysics,1119,j,j,simultaneous,j,TRUE,坏人,img/S_ambi40.png,square,Bad,1,exp2,match
3,2001,5,505.35,psychophysics,879,f,f,simultaneous,f,TRUE,坏人,img/C_ambi40.png,circle,Bad,1,exp2,mismatch
3,2001,5,505.35,psychophysics,755,j,j,simultaneous,j,TRUE,坏人,img/S_ambi40.png,square,Bad,1,exp2,match
3,2001,5,505.35,psychophysics,1153,f,f,simultaneous,f,TRUE,好人,img/C_ambi40.png,circle,Good,1,exp2,mismatch
3,2001,5,505.35,psychophysics,924,f,f,simultaneous,f,TRUE,常人,img/S_ambi40.png,square,Neutral,1,exp2,mismatch
3,2001,5,505.35,psychophysics,913,f,f,simultaneous,f,TRUE,常人,img/T_ambi40.png,triangle,Neutral,1,exp2,mismatch
3,2001,5,505.35,psychophysics,1221,j,j,simultaneous,j,TRUE,常人,img/C_ambi40.png,circle,Neutral,1,exp2,match
3,2001,5,505.35,psychophysics,626,j,j,simultaneous,j,TRUE,常人,img/C_ambi40.png,circle,Neutral,1,exp2,match
3,2001,5,505.35,psychophysics,778,j,j,simultaneous,j,TRUE,好人,img/T_ambi40.png,triangle,Good,1,exp2,match
3,2001,5,505.35,psychophysics,483,j,j,simultaneous,j,TRUE,好人,img/T_ambi40.png,triangle,Good,1,exp2,match
3,2001,5,505.35,psychophysics,809,f,f,simultaneous,f,TRUE,好人,img/S_ambi40.png,square,Good,1,exp2,mismatch
3,2001,5,505.35,psychophysics,794,j,j,simultaneous,j,TRUE,坏人,img/S_ambi40.png,square,Bad,1,exp2,match
3,2001,5,505.35,psychophysics,804,f,f,simultaneous,f,TRUE,坏人,img/T_ambi40.png,triangle,Bad,1,exp2,mismatch
3,2001,5,505.35,psychophysics,788,j,j,simultaneous,j,TRUE,坏人,img/S_ambi40.png,square,Bad,1,exp2,match
3,2001,5,505.35,psychophysics,823,f,f,simultaneous,f,TRUE,坏人,img/T_ambi40.png,triangle,Bad,1,exp2,mismatch
3,2001,5,505.35,psychophysics,919,f,f,simultaneous,f,TRUE,常人,img/T_ambi40.png,triangle,Neutral,1,exp2,mismatch
3,2001,5,505.35,psychophysics,950,f,f,simultaneous,f,TRUE,常人,img/S_ambi40.png,square,Neutral,1,exp2,mismatch
3,2001,5,505.35,psychophysics,614,j,j,simultaneous,j,TRUE,好人,img/T_ambi40.png,triangle,Good,1,exp2,match
3,2001,5,505.35,psychophysics,1351,j,j,simultaneous,j,TRUE,坏人,img/S_ambi40.png,square,Bad,1,exp2,match
3,2001,5,505.35,psychophysics,1171,f,f,simultaneous,f,TRUE,好人,img/C_ambi40.png,circle,Good,1,exp2,mismatch
3,2001,5,505.35,psychophysics,1041,f,f,simultaneous,f,TRUE,坏人,img/C_ambi40.png,circle,Bad,1,exp2,mismatch
3,2001,5,505.35,psychophysics,822,f,f,simultaneous,f,TRUE,好人,img/S_ambi40.png,square,Good,1,exp2,mismatch
3,2001,5,505.35,psychophysics,1099,j,j,simultaneous,j,TRUE,常人,img/C_ambi40.png,circle,Neutral,1,exp2,match
3,2001,5,505.35,psychophysics,566,j,j,simultaneous,j,TRUE,好人,img/T_ambi40.png,triangle,Good,1,exp2,match
3,2001,5,505.35,psychophysics,925,j,j,simultaneous,j,TRUE,常人,img/C_ambi40.png,circle,Neutral,1,exp2,match
3,2001,5,505.35,psychophysics,669,j,j,simultaneous,j,TRUE,好人,img/T_ambi40.png,triangle,Good,1,exp2,match
3,2001,5,505.35,psychophysics,827,f,f,simultaneous,f,TRUE,坏人,img/T_ambi40.png,triangle,Bad,1,exp2,mismatch
3,2001,5,505.35,psychophysics,1316,j,j,simultaneous,j,TRUE,坏人,img/S_ambi40.png,square,Bad,1,exp2,match
3,2001,5,505.35,psychophysics,667,f,f,simultaneous,f,TRUE,好人,img/S_ambi40.png,square,Good,1,exp2,mismatch
3,2001,5,505.35,psychophysics,899,f,f,simultaneous,f,TRUE,常人,img/S_ambi40.png,square,Neutral,1,exp2,mismatch
3,2001,5,505.35,psychophysics,639,j,j,simultaneous,j,TRUE,好人,img/T_ambi40.png,triangle,Good,1,exp2,match
3,2001,5,505.35,psychophysics,641,j,j,simultaneous,j,TRUE,常人,img/C_ambi40.png,circle,Neutral,1,exp2,match
3,2001,5,505.35,psychophysics,591,j,j,simultaneous,j,TRUE,坏人,img/S_ambi40.png,square,Bad,1,exp2,match
3,2001,5,505.35,psychophysics,825,f,f,simultaneous,f,TRUE,常人,img/T_ambi40.png,triangle,Neutral,1,exp2,mismatch
3,2001,5,505.35,psychophysics,890,j,j,simultaneous,j,TRUE,常人,img/C_ambi40.png,circle,Neutral,1,exp2,match
3,2001,5,505.35,psychophysics,619,f,f,simultaneous,f,TRUE,坏人,img/C_ambi40.png,circle,Bad,1,exp2,mismatch
3,2001,5,505.35,psychophysics,940,f,f,simultaneous,f,TRUE,好人,img/C_ambi40.png,circle,Good,1,exp2,mismatch
3,2001,5,505.35,psychophysics,965,j,j,simultaneous,j,TRUE,坏人,img/S_ambi40.png,square,Bad,1,exp2,match
3,2001,5,505.35,psychophysics,889,f,f,simultaneous,f,TRUE,常人,img/T_ambi40.png,triangle,Neutral,1,exp2,mismatch
3,2001,5,505.35,psychophysics,1176,f,f,simultaneous,f,TRUE,常人,img/S_ambi40.png,square,Neutral,1,exp2,mismatch
3,2001,5,505.35,psychophysics,632,j,j,simultaneous,f,FALSE,好人,img/C_ambi40.png,circle,Good,0,exp2,mismatch
3,2001,5,505.35,psychophysics,1117,f,f,simultaneous,f,TRUE,坏人,img/C_ambi40.png,circle,Bad,1,exp2,mismatch
3,2001,5,505.35,psychophysics,949,j,j,simultaneous,j,TRUE,常人,img/C_ambi40.png,circle,Neutral,1,exp2,match
3,2001,5,505.35,psychophysics,571,j,j,simultaneous,j,TRUE,好人,img/T_ambi40.png,triangle,Good,1,exp2,match
3,2001,5,505.35,psychophysics,785,f,f,simultaneous,f,TRUE,好人,img/S_ambi40.png,square,Good,1,exp2,mismatch
3,2001,5,505.35,psychophysics,715,j,j,simultaneous,j,TRUE,常人,img/C_ambi40.png,circle,Neutral,1,exp2,match
3,2001,5,505.35,psychophysics,611,j,j,simultaneous,j,TRUE,好人,img/T_ambi40.png,triangle,Good,1,exp2,match
3,2001,5,505.35,psychophysics,751,j,j,simultaneous,j,TRUE,坏人,img/S_ambi40.png,square,Bad,1,exp2,match
3,2001,5,505.35,psychophysics,665,f,f,simultaneous,f,TRUE,坏人,img/T_ambi40.png,triangle,Bad,1,exp2,mismatch
3,2001,5,505.35,psychophysics,796,j,j,simultaneous,j,TRUE,坏人,img/S_ambi40.png,square,Bad,1,exp2,match
3,2001,5,505.35,psychophysics,1359,f,f,simultaneous,f,TRUE,常人,img/S_ambi40.png,square,Neutral,1,exp2,mismatch
3,2001,5,505.35,psychophysics,1028,f,f,simultaneous,f,TRUE,坏人,img/C_ambi40.png,circle,Bad,1,exp2,mismatch
3,2001,5,505.35,psychophysics,771,j,j,simultaneous,f,FALSE,坏人,img/T_ambi40.png,triangle,Bad,0,exp2,mismatch
3,2001,5,505.35,psychophysics,954,f,f,simultaneous,f,TRUE,好人,img/S_ambi40.png,square,Good,1,exp2,mismatch
3,2001,5,505.35,psychophysics,686,j,j,simultaneous,j,TRUE,好人,img/T_ambi40.png,triangle,Good,1,exp2,match
3,2001,5,505.35,psychophysics,713,j,j,simultaneous,j,TRUE,常人,img/C_ambi40.png,circle,Neutral,1,exp2,match
3,2001,5,505.35,psychophysics,909,f,f,simultaneous,f,TRUE,好人,img/C_ambi40.png,circle,Good,1,exp2,mismatch
3,2001,5,505.35,psychophysics,623,j,j,simultaneous,f,FALSE,常人,img/T_ambi40.png,triangle,Neutral,0,exp2,mismatch
3,2001,5,505.35,psychophysics,698,f,f,simultaneous,j,FALSE,坏人,img/S_ambi40.png,square,Bad,0,exp2,match
3,2001,5,505.35,psychophysics,759,j,j,simultaneous,j,TRUE,好人,img/T_ambi40.png,triangle,Good,1,exp2,match
3,2001,5,505.35,psychophysics,756,j,j,simultaneous,j,TRUE,常人,img/C_ambi40.png,circle,Neutral,1,exp2,match
3,2001,5,505.35,psychophysics,728,j,j,simultaneous,j,TRUE,好人,img/T_ambi40.png,triangle,Good,1,exp2,match
3,2001,5,505.35,psychophysics,743,f,f,simultaneous,f,TRUE,好人,img/C_ambi40.png,circle,Good,1,exp2,mismatch
3,2001,5,505.35,psychophysics,665,j,j,simultaneous,j,TRUE,好人,img/T_ambi40.png,triangle,Good,1,exp2,match
3,2001,5,505.35,psychophysics,803,f,f,simultaneous,f,TRUE,坏人,img/T_ambi40.png,triangle,Bad,1,exp2,mismatch
3,2001,5,505.35,psychophysics,796,j,j,simultaneous,f,FALSE,常人,img/S_ambi40.png,square,Neutral,0,exp2,mismatch
3,2001,5,505.35,psychophysics,746,f,f,simultaneous,f,TRUE,坏人,img/C_ambi40.png,circle,Bad,1,exp2,mismatch
3,2001,5,505.35,psychophysics,802,f,f,simultaneous,f,TRUE,好人,img/S_ambi40.png,square,Good,1,exp2,mismatch
3,2001,5,505.35,psychophysics,640,j,j,simultaneous,j,TRUE,常人,img/C_ambi40.png,circle,Neutral,1,exp2,match
3,2001,5,505.35,psychophysics,640,j,j,simultaneous,j,TRUE,常人,img/C_ambi40.png,circle,Neutral,1,exp2,match
3,2001,5,505.35,psychophysics,585,f,f,simultaneous,j,FALSE,坏人,img/S_ambi40.png,square,Bad,0,exp2,match
3,2001,5,505.35,psychophysics,784,f,f,simultaneous,f,TRUE,常人,img/T_ambi40.png,triangle,Neutral,1,exp2,mismatch
3,2001,5,505.35,psychophysics,776,j,j,simultaneous,j,TRUE,坏人,img/S_ambi40.png,square,Bad,1,exp2,match
3,2001,5,505.35,psychophysics,718,f,f,simultaneous,f,TRUE,常人,img/S_ambi40.png,square,Neutral,1,exp2,mismatch
3,2001,5,505.35,psychophysics,801,f,f,simultaneous,f,TRUE,常人,img/T_ambi40.png,triangle,Neutral,1,exp2,mismatch
3,2001,5,505.35,psychophysics,624,j,j,simultaneous,j,TRUE,好人,img/T_ambi40.png,triangle,Good,1,exp2,match
3,2001,5,505.35,psychophysics,649,j,j,simultaneous,j,TRUE,常人,img/C_ambi40.png,circle,Neutral,1,exp2,match
3,2001,5,505.35,psychophysics,673,j,j,simultaneous,j,TRUE,好人,img/T_ambi40.png,triangle,Good,1,exp2,match
3,2001,5,505.35,psychophysics,729,j,j,simultaneous,j,TRUE,坏人,img/S_ambi40.png,square,Bad,1,exp2,match
3,2001,5,505.35,psychophysics,815,j,j,simultaneous,j,TRUE,常人,img/C_ambi40.png,circle,Neutral,1,exp2,match
3,2001,5,505.35,psychophysics,549,j,j,simultaneous,j,TRUE,坏人,img/S_ambi40.png,square,Bad,1,exp2,match
3,2001,5,505.35,psychophysics,685,f,f,simultaneous,f,TRUE,坏人,img/T_ambi40.png,triangle,Bad,1,exp2,mismatch
3,2001,5,505.35,psychophysics,872,f,f,simultaneous,f,TRUE,好人,img/S_ambi40.png,square,Good,1,exp2,mismatch
3,2001,5,505.35,psychophysics,911,f,f,simultaneous,f,TRUE,坏人,img/C_ambi40.png,circle,Bad,1,exp2,mismatch
3,2001,5,505.35,psychophysics,957,f,f,simultaneous,f,TRUE,好人,img/C_ambi40.png,circle,Good,1,exp2,mismatch
3,2001,5,505.35,psychophysics,1156,f,f,simultaneous,f,TRUE,好人,img/C_ambi40.png,circle,Good,1,exp2,mismatch
3,2001,5,505.35,psychophysics,856,j,j,simultaneous,j,TRUE,常人,img/C_ambi40.png,circle,Neutral,1,exp2,match
3,2001,5,505.35,psychophysics,548,j,j,simultaneous,j,TRUE,常人,img/C_ambi40.png,circle,Neutral,1,exp2,match
3,2001,5,505.35,psychophysics,601,j,j,simultaneous,j,TRUE,好人,img/T_ambi40.png,triangle,Good,1,exp2,match
3,2001,5,505.35,psychophysics,876,f,f,simultaneous,f,TRUE,好人,img/S_ambi40.png,square,Good,1,exp2,mismatch
3,2001,5,505.35,psychophysics,833,j,j,simultaneous,j,TRUE,坏人,img/S_ambi40.png,square,Bad,1,exp2,match
3,2001,5,505.35,psychophysics,912,f,f,simultaneous,f,TRUE,常人,img/S_ambi40.png,square,Neutral,1,exp2,mismatch
3,2001,5,505.35,psychophysics,1077,f,f,simultaneous,f,TRUE,常人,img/T_ambi40.png,triangle,Neutral,1,exp2,mismatch
3,2001,5,505.35,psychophysics,611,j,j,simultaneous,j,TRUE,好人,img/T_ambi40.png,triangle,Good,1,exp2,match
3,2001,5,505.35,psychophysics,773,f,f,simultaneous,f,TRUE,坏人,img/C_ambi40.png,circle,Bad,1,exp2,mismatch
3,2001,5,505.35,psychophysics,731,j,j,simultaneous,j,TRUE,坏人,img/S_ambi40.png,square,Bad,1,exp2,match
3,2001,5,505.35,psychophysics,742,f,f,simultaneous,f,TRUE,坏人,img/T_ambi40.png,triangle,Bad,1,exp2,mismatch
3,2001,5,505.35,psychophysics,659,j,j,simultaneous,j,TRUE,好人,img/T_ambi40.png,triangle,Good,1,exp2,match
3,2001,5,505.35,psychophysics,758,j,j,simultaneous,j,TRUE,好人,img/T_ambi40.png,triangle,Good,1,exp2,match
3,2001,5,505.35,psychophysics,936,f,f,simultaneous,f,TRUE,坏人,img/C_ambi40.png,circle,Bad,1,exp2,mismatch
3,2001,5,505.35,psychophysics,842,f,f,simultaneous,f,TRUE,常人,img/T_ambi40.png,triangle,Neutral,1,exp2,mismatch
3,2001,5,505.35,psychophysics,1197,f,f,simultaneous,f,TRUE,常人,img/S_ambi40.png,square,Neutral,1,exp2,mismatch
3,2001,5,505.35,psychophysics,887,j,j,simultaneous,j,TRUE,常人,img/C_ambi40.png,circle,Neutral,1,exp2,match
3,2001,5,505.35,psychophysics,761,f,f,simultaneous,f,TRUE,坏人,img/T_ambi40.png,triangle,Bad,1,exp2,mismatch
3,2001,5,505.35,psychophysics,979,f,f,simultaneous,f,TRUE,好人,img/S_ambi40.png,square,Good,1,exp2,mismatch
3,2001,5,505.35,psychophysics,741,j,j,simultaneous,j,TRUE,坏人,img/S_ambi40.png,square,Bad,1,exp2,match
3,2001,5,505.35,psychophysics,786,f,f,simultaneous,f,TRUE,好人,img/C_ambi40.png,circle,Good,1,exp2,mismatch
3,2001,5,505.35,psychophysics,833,j,j,simultaneous,j,TRUE,常人,img/C_ambi40.png,circle,Neutral,1,exp2,match
3,2001,5,505.35,psychophysics,637,f,f,simultaneous,j,FALSE,坏人,img/S_ambi40.png,square,Bad,0,exp2,match
3,2001,5,505.35,psychophysics,728,f,f,simultaneous,f,TRUE,坏人,img/C_ambi40.png,circle,Bad,1,exp2,mismatch
3,2001,5,505.35,psychophysics,593,j,j,simultaneous,j,TRUE,坏人,img/S_ambi40.png,square,Bad,1,exp2,match
3,2001,5,505.35,psychophysics,873,j,j,simultaneous,j,TRUE,常人,img/C_ambi40.png,circle,Neutral,1,exp2,match
3,2001,5,505.35,psychophysics,746,j,j,simultaneous,j,TRUE,坏人,img/S_ambi40.png,square,Bad,1,exp2,match
3,2001,5,505.35,psychophysics,731,f,f,simultaneous,f,TRUE,常人,img/T_ambi40.png,triangle,Neutral,1,exp2,mismatch
3,2001,5,505.35,psychophysics,1075,f,f,simultaneous,f,TRUE,好人,img/S_ambi40.png,square,Good,1,exp2,mismatch
3,2001,5,505.35,psychophysics,918,f,f,simultaneous,j,FALSE,好人,img/T_ambi40.png,triangle,Good,0,exp2,match
3,2001,5,505.35,psychophysics,828,f,f,simultaneous,f,TRUE,坏人,img/T_ambi40.png,triangle,Bad,1,exp2,mismatch
3,2001,5,505.35,psychophysics,1057,f,f,simultaneous,f,TRUE,好人,img/C_ambi40.png,circle,Good,1,exp2,mismatch
3,2001,5,505.35,psychophysics,664,j,j,simultaneous,j,TRUE,常人,img/C_ambi40.png,circle,Neutral,1,exp2,match
3,2001,5,505.35,psychophysics,851,f,f,simultaneous,f,TRUE,常人,img/S_ambi40.png,square,Neutral,1,exp2,mismatch
3,2001,5,505.35,psychophysics,659,j,j,simultaneous,j,TRUE,好人,img/T_ambi40.png,triangle,Good,1,exp2,match
3,2001,5,505.35,psychophysics,1238,f,f,simultaneous,f,TRUE,常人,img/S_ambi40.png,square,Neutral,1,exp2,mismatch
3,2001,5,505.35,psychophysics,1067,f,f,simultaneous,f,TRUE,坏人,img/C_ambi40.png,circle,Bad,1,exp2,mismatch
3,2001,5,505.35,psychophysics,959,j,j,simultaneous,j,TRUE,常人,img/C_ambi40.png,circle,Neutral,1,exp2,match
3,2001,5,505.35,psychophysics,700,f,f,simultaneous,f,TRUE,坏人,img/T_ambi40.png,triangle,Bad,1,exp2,mismatch
3,2001,5,505.35,psychophysics,590,j,j,simultaneous,j,TRUE,好人,img/T_ambi40.png,triangle,Good,1,exp2,match
3,2001,5,505.35,psychophysics,718,f,f,simultaneous,f,TRUE,常人,img/T_ambi40.png,triangle,Neutral,1,exp2,mismatch
3,2001,5,505.35,psychophysics,1015,f,f,simultaneous,f,TRUE,好人,img/S_ambi40.png,square,Good,1,exp2,mismatch
3,2001,5,505.35,psychophysics,790,j,j,simultaneous,j,TRUE,坏人,img/S_ambi40.png,square,Bad,1,exp2,match
3,2001,5,505.35,psychophysics,871,f,f,simultaneous,f,TRUE,好人,img/C_ambi40.png,circle,Good,1,exp2,mismatch
